Timestamp,AccX,AccY,AccZ,AngleX,AngleY,AngleZ,AngularVelX,AngularVelY,AngularVelZ,QW,QX,QY,QZ,MagX,MagY,MagZ,Height,AirPressure
54108,9.84307,-0.0287109,-0.0813477,24.6808,-89.4507,115.466,-0.427246,-4.3335,0.976562,-0.241852,-0.662781,0.236969,-0.667816,-17468,-9961,15337,-8928,-28670
54114,9.85264,-0.0717773,-0.110059,24.8621,-89.4727,115.043,-0.183105,-3.35693,0.915527,-0.243317,-0.662323,0.238586,-0.667145,-18492,-9449,16361,-8928,-28670
54120,9.81436,-0.090918,-0.143555,25.2191,-89.4836,114.472,-0.12207,-2.31934,0.12207,-0.244659,-0.661926,0.240051,-0.666534,-19260,-9449,17129,-8928,-28670
54126,9.86221,-0.0574219,-0.143555,25.5707,-89.4836,113.923,-0.305176,-0.671387,-0.610352,-0.245819,-0.66156,0.241302,-0.666016,-19516,-9961,18409,-8928,-28670
54132,9.81436,-0.0717773,-0.14834,25.9662,-89.4836,113.34,-0.366211,0.427246,-1.2207,-0.246979,-0.661163,0.242462,-0.665558,-19516,-11241,20969,-8928,-28670
54138,9.8335,-0.0382813,-0.172266,26.8835,-89.4562,112.077,-0.610352,2.99072,-2.68555,-0.249176,-0.66037,0.244446,-0.664795,-19516,-11497,21737,-8928,-28670
54144,9.79521,-0.0191406,-0.16748,27.2681,-89.4287,111.522,-0.793457,4.69971,-3.479,-0.250244,-0.659943,0.245331,-0.664459,-19260,-11241,20969,-8928,-28670
54150,9.80479,-0.00478516,-0.119629,27.3889,-89.4012,111.242,-0.671387,5.61523,-3.41797,-0.251373,-0.659485,0.246185,-0.664185,-19004,-11241,19689,-8928,-28670
54156,9.80479,-0.00478516,-0.0765625,27.4109,-89.3683,111.055,-0.793457,6.22559,-3.54004,-0.252472,-0.659027,0.246979,-0.66394,-18748,-11241,16873,-8928,-28670
54162,9.80479,0.0191406,-0.0526367,27.4603,-89.3298,110.852,-0.915527,6.5918,-3.78418,-0.254639,-0.658051,0.248505,-0.663513,-19260,-11241,12265,-8928,-28670
54168,9.80479,0.0478516,-0.0191406,27.3395,-89.2639,110.66,-1.15967,6.22559,-3.11279,-0.255707,-0.657562,0.249237,-0.6633,-19772,-11497,10985,-8928,-28670
54174,10.5943,0.0191406,0.133984,27.356,-89.231,110.49,-0.366211,6.28662,-3.54004,-0.256744,-0.657104,0.25,-0.663086,-20284,-10985,11497,-8928,-28670
54180,9.24014,-0.267969,0.0574219,28.537,-89.187,109.243,2.19727,6.7749,-7.38525,-0.257751,-0.656647,0.250702,-0.662903,-20284,-10985,12777,-8928,-28670
54186,10.1637,-0.00478516,-0.30625,29.9158,-89.1431,107.776,-1.34277,6.34766,-8.30078,-0.258423,-0.656372,0.250824,-0.662842,-20540,-11497,13545,-8928,-28670
54192,9.72344,0.119629,-0.15791,30.7452,-89.0936,106.848,-3.17383,7.99561,-7.8125,-0.260101,-0.655762,0.251312,-0.662628,-21052,-12265,12777,-8928,-28670
54198,9.8,0.244043,0.0239258,30.4321,-88.9783,106.957,-0.0610352,11.5356,-5.12695,-0.260925,-0.655334,0.251587,-0.662598,-21820,-12521,10729,-8928,-28670
54204,9.59902,0.181836,0.143555,29.6521,-88.9288,107.617,0.671387,10.6812,-3.05176,-0.26181,-0.654846,0.251923,-0.662628,-23100,-12521,8937,-8928,-28670
54210,9.67559,0.205762,0.248828,28.7512,-88.8904,108.364,0.671387,8.17871,-0.854492,-0.262665,-0.654297,0.252411,-0.662598,-23868,-12521,8681,-8928,-28670
54216,9.67559,0.229688,0.239258,27.6361,-88.8794,109.27,-0.0610352,5.12695,1.83105,-0.263672,-0.653748,0.253204,-0.662476,-25404,-12777,9193,-8928,-28670
54222,9.77129,0.153125,0.349316,26.5979,-88.8794,110.056,0.488281,2.19727,3.05176,-0.266266,-0.652466,0.255951,-0.661652,-27196,-13545,11753,-8928,-28670
54228,9.91006,-0.0669922,0.15791,25.1532,-88.9069,110.923,1.40381,-2.19727,2.68555,-0.267731,-0.651794,0.25766,-0.661041,-27708,-14313,13289,-8928,-28670
54234,9.92441,-0.124414,0.0239258,25.0763,-88.9233,110.687,0.793457,-2.86865,1.15967,-0.269318,-0.651154,0.25946,-0.660309,-27196,-15337,14569,-8928,-28670
54240,9.91006,-0.14834,-0.0143555,25.4883,-88.9343,109.946,0.366211,-2.56348,-1.0376,-0.271027,-0.650513,0.261322,-0.659515,-27196,-16105,16361,-8928,-28670
54246,9.88135,-0.114844,-0.0574219,26.1584,-88.9343,108.94,0.366211,-1.15967,-2.80762,-0.272888,-0.649841,0.263184,-0.658661,-27452,-16617,17385,-8928,-28670
54252,9.84307,-0.0334961,-0.0669922,26.9604,-88.9233,107.803,0.305176,0.244141,-4.08936,-0.276917,-0.648376,0.266846,-0.656952,-27452,-16617,17129,-8928,-28670
54258,9.74736,0.090918,0.0143555,28.1689,-88.8904,105.919,0.183105,2.01416,-3.72314,-0.278992,-0.647583,0.268646,-0.656128,-27196,-15849,16361,-8928,-28670
54264,9.72822,0.14834,0.0382813,28.3282,-88.8794,105.436,0.183105,2.19727,-2.50244,-0.281006,-0.64679,0.270386,-0.655334,-26940,-15593,15849,-8928,-28670
54270,9.73301,0.16748,0.0669922,28.2513,-88.8684,105.189,0.183105,1.95312,-1.28174,-0.282959,-0.645966,0.272156,-0.654572,-26684,-16105,16105,-8928,-28670
54276,9.72822,0.172266,0.0526367,27.8943,-88.8629,105.227,0.244141,1.83105,0.0610352,-0.284851,-0.645142,0.273956,-0.653809,-26940,-17385,17129,-8928,-28670
54282,9.75215,0.110059,0.0813477,27.2461,-88.8574,105.557,0.244141,1.64795,1.52588,-0.288452,-0.643494,0.277557,-0.652344,-27708,-19177,17641,-8928,-28670
54288,9.80957,0.0526367,0.0813477,25.5377,-88.8629,106.633,0.427246,0.854492,3.17383,-0.290192,-0.642639,0.279388,-0.651642,-28220,-19177,17385,-8928,-28670
54294,9.81914,0.0382813,0.0765625,24.6643,-88.8739,107.188,0.244141,0.183105,3.23486,-0.29187,-0.641815,0.28125,-0.650879,-28732,-18921,16617,-8928,-28670
54300,9.8335,0.0430664,0.090918,23.8293,-88.8794,107.704,0.305176,-0.244141,3.23486,-0.293579,-0.640991,0.283142,-0.650146,-29500,-18921,16105,-8928,-28670
54306,9.79521,0.062207,0.105273,23.0328,-88.8959,108.188,0.183105,-1.09863,3.41797,-0.295258,-0.640167,0.285034,-0.649353,-30012,-19177,15849,-8928,-28670
54312,9.84785,0,0.090918,22.2858,-88.9069,108.611,0.244141,-1.52588,3.2959,-0.298645,-0.638519,0.288849,-0.647705,-30268,-20201,14569,-8928,-28670
54318,9.84785,0,0.0669922,21.2805,-88.9398,108.962,0,-2.31934,2.2583,-0.300354,-0.637726,0.290771,-0.646851,-30012,-20969,13033,-8928,-28670
54324,9.81914,0.00478516,0.0669922,20.9564,-88.9563,108.962,0,-2.31934,1.77002,-0.302094,-0.636932,0.292694,-0.645966,-30268,-20969,10985,-8928,-28670
54330,9.82871,0,0.00957031,20.6488,-88.9728,108.935,-0.12207,-2.50244,1.70898,-0.303864,-0.636139,0.294617,-0.64505,-30780,-20969,10217,-8928,-28670
54336,9.82393,0.00478516,0.0191406,20.484,-88.9838,108.776,-0.183105,-2.31934,1.09863,-0.305603,-0.635315,0.296539,-0.644135,-31036,-20713,10729,-8928,-28670
54342,9.80957,0.0239258,0.0574219,20.3741,-88.9948,108.55,0,-2.01416,0.732422,-0.309204,-0.633698,0.300323,-0.642273,-30524,-20201,12265,-8928,-28670
54348,9.82393,0.0239258,0.105273,20.451,-89.0222,107.809,0.305176,-2.31934,0.12207,-0.311005,-0.632874,0.302216,-0.641327,-29756,-19689,13289,-8928,-28670
54354,9.83828,0.00478516,0.114844,20.6158,-89.0332,107.314,0.244141,-2.74658,0.0610352,-0.312805,-0.63205,0.304108,-0.640381,-30012,-18665,13033,-8928,-28670
54360,9.85264,0,0.0526367,20.9344,-89.0497,106.655,0.244141,-3.35693,-0.244141,-0.314636,-0.631226,0.306,-0.639374,-30268,-17897,13033,-8928,-28670
54366,9.81914,-0.0143555,0.0334961,21.4343,-89.0662,105.815,0.244141,-3.479,-0.793457,-0.316498,-0.630402,0.307922,-0.638367,-30268,-16873,13801,-8928,-28670
54372,9.79521,0.0287109,0,21.8848,-89.0826,105.018,0.244141,-3.35693,-0.610352,-0.32019,-0.628754,0.311707,-0.636261,-30780,-16617,15593,-8928,-28670
54378,9.76172,0.00478516,-0.00478516,22.5604,-89.1046,103.672,0.366211,-2.50244,-0.305176,-0.322052,-0.62793,0.313629,-0.635254,-30524,-17385,17385,-8928,-28670
54384,9.83828,0.0143555,-0.0717773,22.7417,-89.1156,103.151,0.244141,-1.83105,-0.244141,-0.323883,-0.627045,0.315521,-0.634216,-30012,-17897,18409,-8928,-28670
54390,9.77607,0.0191406,-0.0239258,22.7856,-89.1211,102.766,0.0610352,-1.46484,0.0610352,-0.325714,-0.62616,0.317383,-0.633209,-29244,-18665,19177,-8928,-28670
54396,9.77129,0.0287109,0.0239258,22.7911,-89.1266,102.42,0.12207,-0.976562,0,-0.327576,-0.625275,0.319275,-0.632202,-28732,-18409,20201,-8928,-28670
54402,9.75215,0.062207,0.0669922,22.6318,-89.1321,102.239,0,-0.854492,0.488281,-0.331238,-0.623383,0.323029,-0.630249,-28988,-17897,21481,-8928,-28670
54408,9.74736,0.0430664,0.0382813,22.0551,-89.1541,102.145,-0.183105,-2.19727,1.64795,-0.333038,-0.622467,0.324921,-0.629242,-29244,-17897,21481,-8928,-28670
54414,9.78086,0.0574219,0.0382813,21.5881,-89.1705,102.277,-0.12207,-2.68555,2.19727,-0.334808,-0.621521,0.326843,-0.628235,-29500,-17897,20713,-8928,-28670
54420,9.81914,0.0478516,0.062207,20.9729,-89.1925,102.552,-0.183105,-3.05176,2.74658,-0.336548,-0.620605,0.328766,-0.627197,-28988,-18665,21225,-8928,-28670
54426,9.78086,0.0239258,0.0239258,20.2972,-89.2145,102.887,-0.427246,-3.479,2.99072,-0.338257,-0.619659,0.330719,-0.62616,-28476,-19177,20969,-8928,-28670
54432,9.8335,0,0.0334961,19.7095,-89.2365,103.134,-0.183105,-3.90625,2.80762,-0.341675,-0.617798,0.334656,-0.624054,-27964,-20457,21481,-8928,-28670
54438,9.84307,-0.0287109,0.0382813,18.7756,-89.2859,103.387,-0.0610352,-4.3335,2.13623,-0.343384,-0.616882,0.336639,-0.622986,-28220,-20457,21737,-8928,-28670
54444,9.86699,-0.0669922,-0.0430664,18.6932,-89.3079,103.129,-0.244141,-4.3335,1.40381,-0.345093,-0.615967,0.338623,-0.621857,-27964,-20201,20969,-8928,-28670
54450,9.87178,-0.0717773,-0.0813477,18.8306,-89.3298,102.645,-0.12207,-3.72314,0.610352,-0.346832,-0.615051,0.340576,-0.620728,-27708,-19689,20713,-8928,-28670
54456,9.8335,-0.062207,-0.090918,19.1437,-89.3408,101.986,-0.366211,-2.99072,-0.0610352,-0.348633,-0.614105,0.342499,-0.619598,-27452,-18921,21225,-8928,-28670
54462,9.80479,-0.0143555,-0.090918,19.6106,-89.3463,101.179,-0.12207,-1.40381,-0.976562,-0.352295,-0.612152,0.346222,-0.617371,-26172,-17641,20713,-8928,-28670
54468,9.78086,0.0191406,-0.110059,20.0391,-89.3408,100.096,-0.0610352,1.2207,-0.915527,-0.354156,-0.611145,0.348022,-0.616333,-25404,-17129,21481,-8928,-28670
54474,9.77607,0.0478516,-0.0382813,19.9622,-89.3298,99.8932,0.305176,2.19727,-0.915527,-0.355865,-0.610168,0.34964,-0.615387,-24892,-17129,22761,-8928,-28670
54480,9.7665,0.0287109,-0.0191406,19.704,-89.3188,99.8987,0.183105,2.56348,-0.549316,-0.357422,-0.609253,0.351105,-0.614563,-25148,-16617,24297,-8928,-28670
54486,9.80479,0.0143555,0.0191406,19.4568,-89.3079,99.9042,0.305176,2.74658,-0.610352,-0.358826,-0.608429,0.352417,-0.6138,-25916,-16105,25321,-8928,-28670
54492,9.80957,-0.00957031,0.0478516,19.1656,-89.2969,99.9426,0.305176,1.95312,-0.366211,-0.361542,-0.606781,0.35495,-0.612366,-26428,-14825,23017,-8936,-28669
54498,9.8,0.0143555,0.0861328,18.913,-89.2804,99.657,0.549316,1.28174,-0.671387,-0.362946,-0.605927,0.356293,-0.611603,-26172,-14313,20457,-8936,-28669
54504,9.82393,0.0239258,0.0861328,18.9624,-89.2804,99.3164,0.488281,0.305176,-0.549316,-0.364471,-0.605011,0.357727,-0.610748,-25660,-14569,17897,-8936,-28669
54510,9.78564,0.0143555,0.0861328,19.0668,-89.2859,98.9044,0.427246,-1.0376,-0.244141,-0.366028,-0.604095,0.359283,-0.609802,-25404,-14825,15593,-8928,-28670
54516,9.82393,0.0526367,0.062207,19.2535,-89.2969,98.4155,0.305176,-2.0752,-0.0610352,-0.367645,-0.60318,0.360901,-0.608795,-25660,-15081,14313,-8928,-28670
54522,9.80957,0.0143555,-0.0143555,19.3854,-89.3079,97.9706,0.244141,-3.05176,0.183105,-0.370819,-0.601349,0.364258,-0.60672,-25148,-15593,13289,-8928,-28670
54528,9.80479,0,0,19.6545,-89.3408,97.0807,0.183105,-3.05176,0.732422,-0.372375,-0.600433,0.365936,-0.605621,-24636,-15849,14313,-8928,-28670
54534,9.84785,0.0287109,-0.0430664,19.6985,-89.3573,96.7236,0,-2.99072,0.671387,-0.373962,-0.599487,0.367645,-0.604553,-23868,-15593,14569,-8928,-28670
54540,9.78086,0.0382813,-0.0430664,19.7864,-89.3738,96.3281,-0.0610352,-2.86865,0.549316,-0.375519,-0.598541,0.369354,-0.603455,-23868,-15593,14313,-8928,-28670
54546,9.81914,0.0239258,-0.0574219,19.8853,-89.3903,95.9271,0.12207,-2.56348,0.427246,-0.377075,-0.597626,0.371033,-0.602386,-24380,-15593,14569,-8928,-28670
54552,9.82871,-0.0239258,-0.0813477,19.9402,-89.4012,95.5811,-0.244141,-2.19727,0.0610352,-0.380066,-0.595795,0.374237,-0.600311,-25148,-15593,14825,-8928,-28670
54558,9.82393,0,-0.0813477,20.3302,-89.4232,94.6417,-0.427246,-1.83105,0.0610352,-0.3815,-0.59494,0.375763,-0.599335,-25148,-15337,15337,-8928,-28670
54564,9.87656,-0.0239258,-0.0669922,20.8411,-89.4287,93.8892,-0.488281,-1.2207,-0.854492,-0.382843,-0.594116,0.377197,-0.598389,-24892,-15337,16105,-8928,-28670
54570,10.8049,-0.287109,0.220117,22.5989,-89.4232,92.3895,0.671387,0.0610352,-3.54004,-0.384094,-0.593353,0.378479,-0.597534,-24892,-14569,16873,-8928,-28670
54576,9.20664,-0.215332,-0.220117,25.9387,-89.4067,89.0717,2.0752,0.183105,-7.50732,-0.382843,-0.594269,0.377014,-0.598328,-25148,-14569,17129,-8928,-28670
54582,9.61338,0.00957031,-0.0191406,29.3115,-89.3903,85.6329,-2.92969,2.86865,-9.46045,-0.383484,-0.594391,0.376831,-0.597931,-25404,-14057,18153,-8928,-28670
54588,9.75215,0.153125,-0.0813477,34.3872,-89.3134,80.4968,-0.488281,4.88281,-8.91113,-0.383911,-0.59436,0.37674,-0.597748,-25148,-14313,18409,-8928,-28670
54594,9.71865,0.253613,-0.0478516,35.321,-89.2694,79.5081,-0.183105,6.22559,-7.14111,-0.384338,-0.594299,0.376556,-0.597626,-25148,-14313,17897,-8928,-28670
54600,9.56074,0.205762,0.114844,35.5902,-89.231,79.162,0.610352,5.7373,-4.94385,-0.384918,-0.594086,0.376556,-0.597473,-26172,-14825,16361,-8928,-28670
54606,9.72822,0.267969,0.0765625,35.3046,-89.2145,79.3268,-0.183105,4.02832,-1.95312,-0.385529,-0.593781,0.37677,-0.59726,-27196,-16105,14313,-8928,-28670
54612,9.71387,0.14834,0.0287109,35.0134,-89.2035,79.4641,-0.183105,0.793457,0.793457,-0.387146,-0.592743,0.378052,-0.596436,-27452,-16361,14569,-8928,-28670
54618,9.93877,0.0813477,0.100488,34.0411,-89.209,80.0793,-0.366211,0.549316,1.34277,-0.388,-0.592133,0.378967,-0.595886,-27196,-16617,15593,-8928,-28670
54624,9.66123,0.0574219,0.0287109,33.5083,-89.2145,80.4199,0,0,1.64795,-0.388916,-0.591492,0.379944,-0.595306,-27196,-17129,16873,-8928,-28670
54630,9.99619,0.00957031,0.062207,33.1622,-89.22,80.5682,0,-0.244141,1.15967,-0.389862,-0.590851,0.380981,-0.594696,-27196,-17129,17897,-8928,-28670
54636,9.69473,0.0287109,0,33.0469,-89.2255,80.4803,-0.305176,-0.854492,0.793457,-0.390839,-0.590179,0.38205,-0.594025,-27452,-17385,17641,-8928,-28670
54642,9.74736,0.110059,-0.0765625,33.1128,-89.2474,80.0134,-1.09863,-1.70898,0.854492,-0.392822,-0.588837,0.384247,-0.59259,-27708,-17897,17641,-8928,-28670
54648,9.87178,0.0143555,0.110059,33.2336,-89.2584,79.6729,-0.793457,-1.83105,0.671387,-0.393799,-0.588196,0.385315,-0.591888,-27196,-18153,17897,-8928,-28670
54654,9.82393,0.090918,0.124414,33.3875,-89.2694,79.2938,0.244141,-2.01416,0.732422,-0.394867,-0.587524,0.386505,-0.591095,-26940,-18409,19689,-8928,-28670
54660,9.77607,0.0861328,0.100488,33.5797,-89.2914,78.8544,0.0610352,-3.11279,1.34277,-0.395996,-0.586761,0.387756,-0.590271,-26684,-18409,21481,-8928,-28670
54666,9.7665,0.0957031,-0.0430664,34.0192,-89.3134,78.1677,-0.610352,-4.21143,1.40381,-0.397156,-0.585999,0.389099,-0.589355,-26684,-17897,21737,-8928,-28670
54672,9.8,0.0717773,-0.062207,34.4531,-89.3628,77.2339,-0.671387,-4.27246,2.44141,-0.399475,-0.584473,0.391907,-0.587463,-27196,-17897,20457,-8928,-28670
54678,9.77607,0.0478516,-0.114844,34.3542,-89.3903,77.0911,-0.915527,-3.479,2.56348,-0.400604,-0.583679,0.393311,-0.586517,-28220,-17897,19945,-8928,-28670
54684,9.83828,0,-0.0765625,33.8818,-89.4067,77.3273,-0.610352,-2.31934,2.68555,-0.401703,-0.582886,0.394684,-0.585632,-28988,-17897,19689,-8928,-28670
54690,9.71387,-0.00957031,-0.100488,33.4259,-89.4177,77.558,-0.549316,-1.52588,2.0752,-0.402771,-0.582092,0.395996,-0.584808,-30012,-18153,20201,-8928,-28670
54696,9.88613,-0.0765625,-0.0861328,32.8546,-89.4287,77.915,-1.28174,-0.854492,1.83105,-0.403839,-0.581329,0.397217,-0.584015,-30780,-18153,20457,-8928,-28670
54702,9.8957,0.062207,-0.062207,31.4539,-89.4342,78.9148,-1.09863,0.976562,1.28174,-0.405853,-0.579834,0.399475,-0.58255,-30268,-18409,19689,-8928,-28670
54708,9.7043,0.0334961,-0.105273,30.2344,-89.4397,79.953,-0.854492,1.52588,1.83105,-0.40683,-0.579102,0.400482,-0.581909,-29500,-17897,19689,-8928,-28670
54714,9.97705,-0.090918,-0.0717773,29.3884,-89.4342,80.6342,-1.2207,1.64795,0.915527,-0.407715,-0.5784,0.401459,-0.581329,-28988,-17129,19945,-8928,-28670
54720,9.64688,0,-0.00478516,28.7622,-89.4287,81.1066,-1.40381,1.58691,0.488281,-0.408539,-0.577789,0.402252,-0.580811,-28732,-16617,20457,-8928,-28670
54726,10.0153,0.0526367,0.0239258,28.3557,-89.4232,81.3483,-1.70898,1.58691,0,-0.409332,-0.577179,0.403046,-0.580292,-28476,-16873,22505,-8928,-28670
54732,9.80957,0.0526367,-0.15791,28.6908,-89.4177,80.7001,-1.46484,0.244141,-0.915527,-0.411041,-0.575989,0.404663,-0.579163,-28732,-17385,24297,-8928,-28670
54738,9.92441,0.0669922,-0.267969,28.8446,-89.4177,80.4254,-4.21143,0.671387,-0.732422,-0.411804,-0.57547,0.405365,-0.578613,-28476,-18665,26345,-8928,-28670
54744,9.67559,0.0143555,-0.0430664,28.6359,-89.4067,80.5133,-4.57764,1.64795,-0.427246,-0.412445,-0.575043,0.405975,-0.578186,-28220,-19945,27881,-8928,-28670
54750,9.91963,0.14834,0.00957031,28.2898,-89.4012,80.744,-3.11279,2.31934,-0.427246,-0.413055,-0.574615,0.406525,-0.577789,-27708,-20969,29161,-8928,-28670
54756,9.75693,0.114844,0.124414,27.5977,-89.3903,81.2933,-1.40381,2.74658,0.183105,-0.413727,-0.574127,0.407104,-0.577393,-26940,-21737,30185,-8928,-28670
54762,9.8,0.0430664,0.0478516,26.4331,-89.3793,82.1613,0.427246,1.2207,0.915527,-0.415192,-0.572998,0.408447,-0.576477,-26428,-22249,29929,-8928,-28670
54768,9.74258,0.0669922,0.062207,25.8508,-89.3848,82.5842,0.244141,0.183105,1.28174,-0.415955,-0.572418,0.409241,-0.575958,-26428,-23273,29161,-8928,-28670
54774,9.75693,0.0957031,0.0287109,24.9939,-89.3958,83.2599,0,-0.976562,2.44141,-0.416748,-0.571808,0.410095,-0.575378,-26684,-24041,27369,-8928,-28670
54780,9.77129,0.062207,0.0430664,23.7964,-89.4122,84.2596,-0.244141,-1.77002,3.479,-0.417542,-0.571136,0.411072,-0.574768,-26428,-24553,25577,-8928,-28670
54786,9.81436,0.0239258,-0.00478516,22.489,-89.4342,85.3693,-0.0610352,-2.13623,3.72314,-0.418396,-0.570435,0.41217,-0.574066,-26684,-23785,21737,-8928,-28670
54792,9.84307,-0.0430664,-0.00478516,20.1819,-89.4672,87.2699,0.0610352,-2.31934,2.74658,-0.420105,-0.56897,0.414429,-0.572632,-27196,-23273,20713,-8928,-28670
54798,9.77129,0.0191406,-0.0287109,19.4788,-89.4836,87.7533,-0.244141,-2.74658,2.2583,-0.421051,-0.568237,0.415588,-0.571838,-27964,-23017,20457,-8928,-28670
54804,9.73301,0.119629,0.0430664,18.4076,-89.5056,88.5883,-0.671387,-3.35693,3.05176,-0.421997,-0.567474,0.416779,-0.571014,-28476,-23017,20969,-8928,-28670
54810,9.74258,0.15791,0.0813477,16.6553,-89.5331,90.0934,0,-3.84521,4.21143,-0.423035,-0.56665,0.418091,-0.570129,-28220,-22761,21225,-8928,-28670
54816,9.65645,0.181836,0.0765625,13.7878,-89.5715,92.6917,0.488281,-5.12695,5.98145,-0.424103,-0.565765,0.419525,-0.569153,-27452,-20457,24297,-8928,-28670
54822,9.8,0.0334961,0.0765625,3.40027,-89.6594,102.497,0.0610352,-8.36182,8.42285,-0.426239,-0.563782,0.422821,-0.567078,-26940,-19945,25065,-8928,-28670
54828,9.84785,-0.0717773,0.0526367,-4.11987,-89.7089,109.709,0,-9.8877,8.11768,-0.427368,-0.562744,0.424652,-0.565918,-26684,-19689,26857,-8928,-28670
54834,9.89092,-0.129199,-0.0478516,-13.3868,-89.7583,118.647,-0.183105,-10.6812,6.89697,-0.428528,-0.561676,0.426575,-0.564636,-26940,-19433,27369,-8928,-28670
54840,9.89092,-0.124414,-0.0765625,-25.1697,-89.8022,130.095,-0.610352,-10.7422,5.61523,-0.429749,-0.560608,0.428528,-0.563293,-27452,-19689,25833,-8928,-28670
54846,9.88613,-0.114844,-0.0669922,-39.8364,-89.8352,144.421,-0.366211,-10.437,4.08936,-0.43103,-0.559509,0.430511,-0.561859,-27196,-18921,24041,-8928,-28670
54852,9.78086,-0.15791,-0.062207,-76.778,-89.8682,-179.264,-0.610352,-9.0332,0.915527,-0.433868,-0.557251,0.434448,-0.558868,-26940,-17897,24297,-8928,-28670
54858,9.87656,-0.0430664,-0.263184,-95.3668,-89.8682,-160.955,-0.854492,-8.05664,0.671387,-0.435059,-0.556396,0.436035,-0.557587,-26940,-16873,25065,-8928,-28670
54864,9.72344,-0.00957031,-0.162695,-109.16,-89.8627,-147.442,-0.671387,-6.53076,0.610352,-0.436249,-0.555511,0.437561,-0.556366,-25916,-15849,27625,-8928,-28670
54870,9.78086,-0.0239258,-0.239258,-117.252,-89.8462,-139.625,0,-4.82178,1.09863,-0.437439,-0.554596,0.439056,-0.555145,-25148,-14313,28649,-8928,-28670
54876,9.80957,-0.0813477,-0.196191,-121.146,-89.8352,-136,0.549316,-3.11279,1.28174,-0.43866,-0.553619,0.440521,-0.553986,-23612,-10985,29673,-8928,-28670
54882,9.88613,-0.153125,-0.15791,-127.755,-89.8187,-129.875,0.610352,-1.70898,-1.09863,-0.44104,-0.551727,0.443176,-0.55188,-23100,-9705,30441,-8928,-28670
54888,9.91006,-0.181836,-0.0813477,-134.099,-89.8297,-123.761,0.183105,-2.19727,-3.2959,-0.442169,-0.550842,0.444336,-0.550903,-23100,-8937,31721,-8928,-28670
54894,9.93398,-0.14834,0,-143.822,-89.8297,-114.236,0.183105,-3.23486,-4.82178,-0.443268,-0.55011,0.445374,-0.549927,-23100,-7913,-32279,-8928,-28670
54900,9.88613,-0.0813477,0.0478516,-157.302,-89.8242,-100.926,0.366211,-4.94385,-6.46973,-0.444275,-0.5495,0.446259,-0.548981,-22332,-7657,-30231,-8928,-28670
54906,9.81436,0.0191406,0.062207,-169.651,-89.8022,-88.7201,0.610352,-7.01904,-6.34766,-0.445862,-0.548828,0.447693,-0.547241,-21308,-8169,-29463,-8928,-28670
54912,9.62773,0.234473,0.0765625,-179.989,-89.7034,-78.6511,1.09863,-11.4136,-2.2583,-0.446411,-0.548615,0.448395,-0.546417,-20540,-8169,-29719,-8928,-28670
54918,9.65166,0.229688,0,-179.165,-89.632,-79.6674,1.34277,-13.6108,1.09863,-0.446899,-0.54837,0.449219,-0.545563,-21052,-7913,-29975,-8928,-28670
54924,9.66123,0.191406,-0.0765625,-176.781,-89.5605,-82.2931,1.28174,-14.7705,3.96729,-0.44751,-0.547943,0.450409,-0.544525,-21820,-7657,-30231,-8928,-28670
54930,9.78564,0.090918,-0.124414,-174.139,-89.4781,-85.21,1.77002,-15.4419,5.79834,-0.448303,-0.547241,0.451965,-0.543274,-21820,-7145,-30487,-8928,-28670
54936,9.75693,-0.00478516,-0.143555,-171.964,-89.4012,-87.6709,2.68555,-15.564,6.34766,-0.450043,-0.545532,0.455505,-0.540588,-22076,-7145,-28439,-8928,-28670
54942,9.8,-0.0287109,-0.263184,-168.821,-89.2419,-91.3843,2.62451,-14.7095,6.46973,-0.450897,-0.544647,0.457306,-0.539246,-22076,-7657,-26903,-8928,-28670
54948,9.7665,0,-0.291895,-167.454,-89.165,-93.0432,2.62451,-13.7329,6.95801,-0.451813,-0.543732,0.459106,-0.537903,-22076,-8681,-23319,-8928,-28670
54954,9.79521,0.0669922,-0.363672,-165.981,-89.0991,-94.812,2.99072,-12.5732,7.75146,-0.452759,-0.542725,0.460938,-0.53653,-21820,-9449,-19735,-8928,-28670
54960,9.68994,0.00957031,-0.301465,-164.383,-89.0332,-96.7072,4.5166,-10.7422,8.42285,-0.453735,-0.541656,0.462769,-0.535187,-21308,-9705,-16663,-8928,-28670
54966,9.76172,0.0382813,-0.358887,-162.576,-88.9783,-98.8165,5.18799,-9.0332,9.39941,-0.455688,-0.539368,0.46637,-0.532715,-20284,-9705,-14103,-8928,-28670
54972,9.77129,-0.0813477,-0.349316,-158.511,-88.8849,-103.48,5.79834,-5.37109,10.6812,-0.456696,-0.538116,0.46817,-0.531555,-19772,-9705,-15127,-8928,-28670
54978,9.82393,-0.14834,-0.387598,-156.555,-88.8409,-105.732,5.67627,-4.21143,10.2539,-0.457733,-0.536804,0.46991,-0.530457,-19260,-8937,-16151,-8928,-28670
54984,9.80479,-0.191406,-0.382812,-154.814,-88.808,-107.776,5.12695,-3.2959,9.46045,-0.458771,-0.535461,0.471649,-0.529358,-17980,-8681,-16151,-8928,-28670
54990,9.82871,-0.196191,-0.354102,-153.243,-88.775,-109.649,4.21143,-2.44141,8.66699,-0.459869,-0.534119,0.473328,-0.528259,-16956,-8425,-15127,-8928,-28670
54996,9.85742,-0.191406,-0.392383,-151.88,-88.7476,-111.324,3.2959,-2.2583,7.93457,-0.462219,-0.531342,0.476685,-0.526001,-15164,-7145,-12567,-8928,-28670
55002,9.81436,-0.177051,-0.382812,-149.634,-88.7036,-114.192,2.31934,-0.610352,5.98145,-0.46344,-0.529938,0.478333,-0.524841,-15164,-6377,-11543,-8928,-28670
55008,9.8335,-0.196191,-0.358887,-148.656,-88.6926,-115.483,2.31934,0.427246,5.00488,-0.464722,-0.528534,0.479919,-0.523682,-15420,-5609,-11799,-8928,-28670
55014,9.8,-0.215332,-0.325391,-147.7,-88.6871,-116.746,2.68555,1.46484,4.27246,-0.466034,-0.5271,0.481476,-0.522522,-16188,-4329,-11543,-8928,-28670
55020,9.88613,-0.330176,-0.287109,-146.992,-88.6871,-117.762,2.86865,1.83105,2.68555,-0.467377,-0.525696,0.482971,-0.521393,-16700,-3305,-10775,-8928,-28670
55026,9.99141,-0.392383,-0.258398,-146.838,-88.6926,-118.218,3.11279,1.58691,-0.244141,-0.470123,-0.52301,0.485718,-0.519043,-16956,-1513,-9239,-8928,-28670
55032,9.94355,-0.330176,-0.234473,-148.552,-88.7201,-117.092,1.95312,-0.427246,-6.5918,-0.471558,-0.52179,0.487,-0.517761,-15420,-233,-9239,-8928,-28670
55038,9.89092,-0.220117,-0.220117,-150.337,-88.7311,-115.604,1.40381,-1.95312,-8.17871,-0.473022,-0.520691,0.48819,-0.516418,-14396,792,-10007,-8928,-28670
55044,9.81436,-0.0430664,-0.181836,-152.342,-88.7366,-113.89,1.15967,-3.17383,-8.48389,-0.474487,-0.519653,0.48938,-0.514984,-13372,1560,-10007,-8928,-28670
55050,9.71387,0.0478516,-0.205762,-154.144,-88.7366,-112.379,1.34277,-4.08936,-6.95801,-0.475922,-0.518646,0.490601,-0.513519,-13116,2072,-9495,-8928,-28670
55056,9.6708,0.0765625,-0.30625,-155.577,-88.7256,-111.237,1.40381,-4.63867,-4.94385,-0.478607,-0.516571,0.493134,-0.510651,-13372,2584,-9495,-8928,-28670
55062,9.68037,-0.0191406,-0.368457,-156.819,-88.6981,-110.583,1.70898,-2.99072,-0.732422,-0.479858,-0.515472,0.494507,-0.509277,-13628,3352,-9751,-8928,-28670
55068,9.74258,-0.0478516,-0.349316,-156.918,-88.6926,-110.77,2.19727,-1.64795,0.0610352,-0.48111,-0.514282,0.49585,-0.507996,-12860,3864,-10775,-8928,-28670
55074,9.80479,-0.129199,-0.344531,-156.78,-88.6871,-111.198,2.80762,-0.244141,0.610352,-0.482361,-0.513031,0.497192,-0.506714,-12860,4120,-11031,-8928,-28670
55080,9.7665,-0.133984,-0.416309,-156.572,-88.6926,-111.698,2.92969,0.976562,0.427246,-0.483612,-0.51178,0.498505,-0.505524,-12604,3864,-11287,-8928,-28670
55086,9.81436,-0.13877,-0.607715,-156.11,-88.6981,-112.451,1.52588,2.74658,0.854492,-0.486206,-0.509125,0.501068,-0.503174,-13372,2840,-12055,-8928,-28670
55092,9.88135,-0.258398,-0.799121,-154.918,-88.7805,-114.263,-2.01416,11.2915,-2.2583,-0.487701,-0.50766,0.502319,-0.502014,-13628,3096,-12055,-8928,-28670
55098,9.82393,-0.263184,-0.722559,-154.023,-88.8684,-115.466,-1.70898,17.5171,-4.76074,-0.489349,-0.506073,0.503418,-0.500885,-13628,2840,-12567,-8936,-28669
55104,9.77607,-0.143555,-0.607715,-152.551,-88.9838,-117.246,-1.09863,23.0103,-5.98145,-0.49118,-0.504425,0.504333,-0.499817,-13372,2840,-12055,-8936,-28669
55110,9.73301,-0.0191406,-0.378027,-150.09,-89.1046,-120.026,-1.15967,26.123,-5.5542,-0.493134,-0.502686,0.505066,-0.498901,-12604,2072,-11799,-8936,-28669
55116,9.68037,0.143555,0,-146.266,-89.2255,-124.162,-1.2207,26.6113,-4.08936,-0.497162,-0.498993,0.5065,-0.497162,-12092,536,-11031,-8936,-28669
55122,9.65645,0.13877,0.100488,-132.913,-89.4012,-138.142,-1.34277,22.2778,1.70898,-0.499084,-0.49707,0.507294,-0.496338,-11836,24,-11543,-8936,-28669
55128,9.72344,0.105273,0.0813477,-124.085,-89.4397,-147.294,-1.52588,18.9819,4.45557,-0.500885,-0.495148,0.50824,-0.495483,-12092,-489,-12823,-8936,-28669
55134,9.73779,0.00478516,0.0334961,-115.378,-89.4452,-156.324,-1.83105,15.9302,6.04248,-0.502594,-0.493195,0.509338,-0.494598,-12092,-489,-14615,-8936,-28669
55140,9.82871,-0.0574219,-0.00957031,-107.424,-89.4397,-164.603,-2.01416,14.0991,6.53076,-0.504181,-0.491272,0.510529,-0.493652,-12604,-1001,-15639,-8936,-28669
55146,9.87178,-0.191406,-0.0287109,-100.459,-89.4177,-171.898,-2.44141,12.8174,6.83594,-0.507263,-0.487457,0.513062,-0.491638,-13372,-745,-18199,-8936,-28669
55152,9.88135,-0.196191,0.0191406,-89.5386,-89.3738,176.528,-1.89209,10.9863,4.21143,-0.508789,-0.485626,0.514343,-0.49057,-13884,-1513,-19735,-8936,-28669
55158,9.84307,-0.177051,0.0334961,-85.3748,-89.3518,172.04,-1.52588,9.82666,2.68555,-0.510284,-0.483826,0.515564,-0.489471,-13884,-1513,-22295,-8936,-28669
55164,9.8335,-0.129199,0.0287109,-82.1118,-89.3353,168.459,-1.34277,8.23975,2.2583,-0.51181,-0.482117,0.516785,-0.488312,-13372,-1769,-24599,-8936,-28669
55170,9.81914,-0.114844,0.0574219,-79.5026,-89.3134,165.531,-1.83105,7.01904,1.77002,-0.513275,-0.480438,0.518005,-0.487122,-13116,-2025,-27671,-8936,-28669
55176,9.80957,-0.119629,0.0813477,-77.6514,-89.2969,163.367,-1.83105,5.49316,2.01416,-0.516113,-0.477203,0.520508,-0.484619,-11580,-1001,-31255,-8936,-28669
55182,9.80957,-0.153125,-0.0430664,-75.5859,-89.2694,160.664,-2.19727,3.05176,1.2207,-0.517487,-0.475616,0.52179,-0.483307,-11068,-1001,32745,-8936,-28669
55188,9.82871,-0.153125,-0.0382813,-74.8663,-89.2639,159.637,-2.19727,2.68555,0.915527,-0.51886,-0.474091,0.523071,-0.481995,-10812,-1001,31721,-8936,-28669
55194,9.88135,-0.177051,-0.0669922,-73.9764,-89.2529,158.439,-1.77002,2.92969,0,-0.520172,-0.472565,0.524353,-0.480652,-10300,-745,30441,-8936,-28669
55200,9.87656,-0.234473,-0.114844,-72.724,-89.2529,156.879,-1.77002,3.54004,-1.34277,-0.521515,-0.4711,0.525574,-0.479309,-9788,-745,29417,-8928,-28670
55206,9.85264,-0.200977,-0.177051,-70.9717,-89.2584,154.819,-2.19727,4.39453,-2.86865,-0.524292,-0.468201,0.527832,-0.476593,-9020,280,26089,-8928,-28670
55212,9.77129,-0.119629,-0.191406,-65.0281,-89.2749,148.266,-2.80762,7.75146,-5.18799,-0.525787,-0.466797,0.52887,-0.47522,-8764,280,23273,-8936,-28669
55218,9.66123,0.00478516,-0.244043,-61.04,-89.2694,143.965,-2.92969,9.8877,-4.27246,-0.527313,-0.465332,0.529877,-0.473846,-9020,280,21225,-8936,-28669
55224,9.72822,0,-0.358887,-56.5192,-89.2419,139.12,-3.72314,13.1226,-2.38037,-0.5289,-0.463776,0.530823,-0.472534,-9020,24,19433,-8936,-28669
55230,9.80479,-0.153125,-0.234473,-51.2677,-89.2035,133.55,-3.78418,16.9678,-2.2583,-0.530548,-0.462067,0.531799,-0.471252,-9020,-233,19177,-8936,-28669
55236,9.91006,-0.210547,0.0574219,-45.8679,-89.1486,127.82,-2.86865,19.165,-3.11279,-0.534088,-0.458435,0.533508,-0.468903,-9020,1048,20713,-8936,-28669
55242,9.89092,-0.15791,0.133984,-35.9857,-89.0332,117.318,-1.83105,18.4326,-6.04248,-0.535889,-0.456665,0.534241,-0.467743,-9532,1816,20969,-8936,-28669
55248,9.90527,-0.13877,0.215332,-31.9427,-88.9838,112.967,-2.01416,16.5405,-6.83594,-0.537689,-0.454956,0.534943,-0.466522,-9788,3096,20713,-8936,-28669
55254,9.87656,-0.129199,0.191406,-28.2623,-88.9398,108.979,-2.01416,14.6484,-7.99561,-0.539429,-0.453339,0.535675,-0.46524,-10300,3352,19689,-8936,-28669
55260,9.82393,-0.090918,0.133984,-24.9884,-88.9014,105.403,-2.13623,13.1836,-8.23975,-0.541138,-0.451782,0.536377,-0.463928,-10300,3608,18665,-8936,-28669
55266,9.68037,0.119629,0.210547,-22.1429,-88.8574,102.255,-1.52588,11.5356,-5.98145,-0.544434,-0.448792,0.537872,-0.461243,-9020,3352,14057,-8936,-28669
55272,9.63252,0.133984,0.272754,-18.5614,-88.7695,98.0859,-0.793457,10.498,-3.54004,-0.54599,-0.447296,0.538666,-0.4599,-7996,2840,11753,-8936,-28669
55278,9.66123,0.119629,0.267969,-17.9132,-88.7311,97.1576,-0.0610352,8.78906,-0.915527,-0.547455,-0.445801,0.53952,-0.458649,-7996,2072,9961,-8936,-28669
55284,9.72822,0.062207,0.282324,-17.8418,-88.6981,96.806,0,6.95801,1.09863,-0.548798,-0.444275,0.540436,-0.457458,-8764,1560,8425,-8936,-28669
55290,9.75693,-0.00478516,0.258398,-18.1934,-88.6761,96.8939,0,4.82178,2.50244,-0.550018,-0.44281,0.541382,-0.456299,-10044,792,7145,-8936,-28669
55296,9.84307,-0.14834,0.229688,-18.6383,-88.6542,97.0972,0.244141,1.83105,2.0752,-0.552063,-0.440125,0.543274,-0.454132,-12092,792,6121,-8936,-28669
55302,9.8957,-0.14834,0.119629,-19.303,-88.6432,97.3114,-0.12207,0.915527,0.915527,-0.552948,-0.438965,0.544159,-0.453125,-13884,1560,5865,-8936,-28669
55308,9.87178,-0.181836,0.062207,-19.2371,-88.6377,97.0148,-0.610352,1.2207,-0.549316,-0.553833,-0.437866,0.545044,-0.452087,-14396,1816,5609,-8936,-28669
55314,9.89092,-0.15791,0.105273,-18.8965,-88.6322,96.449,-0.305176,2.01416,-1.64795,-0.554718,-0.436768,0.545868,-0.450989,-14908,1816,4329,-8936,-28669
55320,9.83828,-0.110059,0.0861328,-18.2922,-88.6267,95.625,0,2.74658,-2.74658,-0.555664,-0.435699,0.546661,-0.449921,-15420,1304,3305,-8936,-28669
55326,9.81436,-0.0430664,0.0717773,-17.666,-88.6157,94.7736,-0.549316,3.41797,-2.99072,-0.557648,-0.433563,0.548187,-0.447723,-15676,24,1001,-8936,-28669
55332,9.72344,0.0239258,0.133984,-16.3861,-88.5938,93.0432,-0.488281,3.90625,-2.50244,-0.558624,-0.432495,0.54892,-0.446594,-15932,-233,-536,-8936,-28669
55338,9.74736,0.0334961,0.114844,-15.9796,-88.5773,92.417,-0.549316,4.39453,-1.40381,-0.559631,-0.431396,0.549622,-0.445526,-16188,-1257,-1048,-8936,-28669
55344,9.70908,0.0287109,0.0765625,-15.7379,-88.5553,91.9556,-0.610352,5.18799,-0.366211,-0.560577,-0.430298,0.550323,-0.444519,-15420,-2281,-280,-8936,-28669
55350,9.72822,0.0287109,0.186621,-15.8093,-88.5278,91.8237,-0.427246,5.49316,1.40381,-0.561554,-0.429169,0.551025,-0.443542,-15420,-3561,-24,-8936,-28669
55356,9.80957,-0.0334961,0.320605,-15.9576,-88.5059,91.7798,-0.12207,2.99072,2.86865,-0.563232,-0.426971,0.552368,-0.441864,-15676,-3561,-2072,-8936,-28669
55362,9.80957,-0.0957031,0.330176,-16.886,-88.4839,92.3676,-0.671387,0.854492,2.56348,-0.563904,-0.425995,0.553009,-0.441132,-15932,-3049,-3352,-8936,-28669
55368,9.91006,-0.153125,0.282324,-17.3364,-88.4894,92.6532,-1.28174,-1.28174,1.70898,-0.564514,-0.42514,0.55368,-0.440369,-16444,-2537,-4888,-8936,-28669
55374,9.94834,-0.215332,0.267969,-17.5397,-88.5004,92.6862,-1.70898,-2.68555,-0.12207,-0.565063,-0.424316,0.554382,-0.439575,-16956,-2025,-6168,-8936,-28669
55380,9.88135,-0.200977,0.253613,-17.4298,-88.5278,92.406,-2.01416,-3.90625,-2.19727,-0.565643,-0.423553,0.555084,-0.43869,-16956,-1769,-8216,-8936,-28669
55386,9.72822,0.0334961,0.191406,-17.276,-88.5553,92.0819,-2.86865,-5.79834,-2.13623,-0.566772,-0.422211,0.556488,-0.436707,-16956,-1513,-10008,-8936,-28669
55392,9.7665,-0.062207,0.0765625,-17.5067,-88.6212,91.9885,-3.54004,-5.98145,-1.0376,-0.567261,-0.42157,0.55719,-0.43576,-16188,-1001,-11288,-8936,-28669
55398,9.81436,-0.0957031,0.0334961,-17.666,-88.6487,91.983,-4.21143,-5.43213,-1.28174,-0.567749,-0.420929,0.557953,-0.434814,-15932,-1001,-11800,-8936,-28669
55404,9.82393,-0.0526367,-0.00478516,-17.7704,-88.6761,91.9061,-5.7373,-4.88281,-1.46484,-0.568268,-0.420227,0.558685,-0.433838,-14396,-1257,-11032,-8936,-28669
55410,9.8,-0.105273,-0.114844,-17.8802,-88.6981,91.8182,-8.60596,-4.27246,-1.34277,-0.568848,-0.419495,0.559448,-0.432831,-14140,-1001,-10008,-8936,-28669
55416,9.8957,-0.181836,0.0239258,-17.655,-88.7421,91.1096,-15.4419,-3.11279,-2.74658,-0.570282,-0.417633,0.561188,-0.430481,-13884,-745,-9240,-8936,-28669
55422,9.89092,-0.224902,0.282324,-17.0618,-88.7695,90.2637,-16.5405,-4.08936,-4.69971,-0.571198,-0.416504,0.562134,-0.429108,-14140,-745,-9496,-8936,-28669
55428,9.81914,-0.0717773,0.526367,-16.4136,-88.808,89.3793,-15.8081,-7.08008,-5.61523,-0.572113,-0.415436,0.56311,-0.427673,-13884,-489,-10776,-8936,-28669
55434,9.75215,0.0957031,0.650781,-15.9521,-88.8739,88.7091,-14.3433,-11.9019,-5.85938,-0.572906,-0.41452,0.564056,-0.426208,-13628,-489,-11032,-8936,-28669
55440,9.64209,0.186621,0.555078,-16.496,-88.9618,89.0826,-13.1836,-16.9678,-3.11279,-0.573456,-0.413879,0.565002,-0.424835,-11836,-2281,-10264,-8936,-28669
55446,9.7043,0.0143555,0.0717773,-20.4181,-89.1376,92.6917,-12.3291,-18.3716,1.15967,-0.573883,-0.412964,0.567078,-0.422424,-11580,-3305,-8472,-8936,-28669
55452,9.74258,0.0765625,-0.0191406,-23.4778,-89.209,95.614,-12.3901,-16.9067,2.56348,-0.573944,-0.412537,0.568085,-0.421387,-11836,-3817,-6936,-8936,-28669
55458,9.64209,0.110059,-0.133984,-27.8503,-89.2694,99.8492,-14.4043,-15.686,5.18799,-0.573975,-0.412079,0.569061,-0.420441,-12348,-4073,-5656,-8936,-28669
55464,9.84307,-0.0813477,-0.090918,-33.0853,-89.3134,104.947,-16.4795,-14.3433,6.40869,-0.574005,-0.41156,0.570038,-0.419617,-13116,-3561,-5400,-8936,-28669
55470,9.9627,-0.191406,-0.196191,-37.9083,-89.3518,109.616,-16.7847,-11.8408,5.18799,-0.574036,-0.41095,0.571014,-0.418823,-14140,-2281,-2328,-8936,-28669
55476,9.94834,-0.253613,-0.234473,-41.7426,-89.3903,113.104,-14.4653,-3.72314,-1.40381,-0.574554,-0.409576,0.572784,-0.417053,-14396,-2025,233,-8936,-28669
55482,9.99141,-0.14834,-0.172266,-40.545,-89.4067,111.709,-12.5732,-0.732422,-4.21143,-0.575134,-0.408752,0.573517,-0.416046,-14908,-1513,3305,-8936,-28669
55488,9.88135,-0.062207,-0.181836,-37.8204,-89.4177,108.776,-10.7422,2.01416,-5.79834,-0.575897,-0.407898,0.574158,-0.414948,-15164,-489,6121,-8936,-28669
55494,-19.5952,19.5474,19.2411,79.6783,-87.9181,-8.13538,100.281,-19.7144,-478.638,-0.576813,-0.406952,0.574738,-0.413788,-15164,24,8169,-8936,-28669
55500,36.2428,33.6684,38.8459,57.052,-85.5835,15.249,129.028,402.222,-323.669,-0.582825,-0.42215,0.564331,-0.404358,-17724,-1001,11753,-8936,-28669
55506,21.5906,-5.63691,17.7003,18.4241,-85.7538,54.3329,41.8701,57.1899,273.193,-0.598236,-0.416992,0.542084,-0.417419,-21052,-3817,10729,-8936,-28669
55512,5.81875,-7.55098,9.21143,5.35583,-86.5393,67.3682,-29.9072,-129.333,207.458,-0.593781,-0.411011,0.543945,-0.427155,-25404,-8169,7401,-8936,-28669
55518,2.9668,-8.82383,0,-1.74683,-87.4731,74.1577,-81.543,-196.411,80.4443,-0.587402,-0.408051,0.550812,-0.430023,-28476,-11753,233,-8936,-28669
55524,2.69404,0.378027,-3.92861,-6.1853,-88.2422,78.2391,-88.9893,-167.847,23.6816,-0.582672,-0.407959,0.558105,-0.427124,-31036,-14825,-5912,-8936,-28669
55530,10.7427,-1.31592,-2.89502,-7.8772,-88.5388,79.942,-14.3433,-70.1904,6.10352,-0.579803,-0.408539,0.563782,-0.423065,-29244,-15337,-15384,-8936,-28669
55536,9.42197,0.669922,-0.952246,-8.34961,-88.0719,80.8429,21.2402,52.1851,20.2637,-0.578125,-0.410187,0.56369,-0.423828,-26940,-13289,-15128,-8936,-28669
55542,9.08223,0.497656,1.14844,-10.7721,-87.8137,83.4027,8.48389,39.0625,30.0903,-0.578613,-0.409668,0.561707,-0.426331,-24124,-10729,-13848,-8936,-28669
55548,10.9102,-1.18193,1.51211,-12.5848,-87.6709,85.3088,-0.366211,16.3574,23.4985,-0.578796,-0.408813,0.560455,-0.428528,-21308,-8169,-12568,-8936,-28669
55554,11.3887,-1.73701,1.09102,-12.4805,-87.605,85.3033,1.83105,5.7373,5.67627,-0.578674,-0.408295,0.559845,-0.429932,-18748,-6889,-11800,-8936,-28669
55560,10.1637,-1.46904,0.397168,-10.2832,-87.572,83.2104,6.04248,2.44141,-13.4888,-0.578613,-0.408478,0.559204,-0.430695,-14908,-4073,-10776,-8936,-28669
55566,8.98652,-0.291895,0.31582,-3.62549,-87.5171,76.745,2.99072,2.01416,-25.5127,-0.579102,-0.410217,0.557159,-0.43103,-12860,-3049,-11288,-8928,-28670
55572,9.71387,0.205762,0.110059,-0.774536,-87.4841,73.9655,0.366211,2.13623,-21.9727,-0.579498,-0.411163,0.556122,-0.430939,-11324,-2025,-10520,-8928,-28670
55578,9.39805,0.0717773,0.392383,1.53809,-87.4457,71.7078,-0.976562,2.01416,-18.1885,-0.579895,-0.411987,0.555206,-0.430817,-10044,-745,-10520,-8928,-28670
55584,10.2307,-0.0765625,0.267969,3.70789,-87.4127,69.5929,-3.23486,-0.12207,-17.5171,-0.5802,-0.412659,0.554413,-0.430786,-8508,-489,-11288,-8928,-28670
55590,9.70908,-0.0478516,0.507227,5.83923,-87.3907,67.5055,-3.479,-1.52588,-17.7002,-0.580505,-0.4133,0.553741,-0.430634,-7228,-233,-14360,-8928,-28670
55596,9.9627,0.220117,0.334961,9.86572,-87.3688,63.5724,-3.479,-5.98145,-15.625,-0.580963,-0.414673,0.552551,-0.430237,-7484,-489,-16408,-8928,-28670
55602,9.57031,0.301465,0.392383,11.4697,-87.3688,62.0123,-2.99072,-7.14111,-12.7563,-0.581085,-0.415344,0.552124,-0.429993,-8508,-1257,-16664,-8928,-28670
55608,9.58467,0.378027,0.30625,12.5739,-87.3743,60.9631,-1.46484,-7.26318,-7.93457,-0.581085,-0.415955,0.551758,-0.42981,-10044,-1769,-16920,-8928,-28670
55614,9.65645,0.244043,0.267969,13.3209,-87.3798,60.2765,-0.732422,-6.53076,-4.69971,-0.580994,-0.416504,0.551483,-0.429779,-11068,-2537,-15640,-8928,-28670
55620,9.45068,0.186621,0.220117,13.7878,-87.3907,59.8645,-0.183105,-6.22559,-2.13623,-0.580841,-0.416992,0.551208,-0.429871,-12860,-2793,-14872,-8928,-28670
55626,9.79043,0.0382813,0.0861328,13.9362,-87.4072,59.837,-0.366211,-4.45557,2.13623,-0.580353,-0.417786,0.550812,-0.430267,-12860,-3305,-15128,-8928,-28670
55632,9.96748,-0.0143555,0.0191406,13.8043,-87.4017,60.0238,-1.28174,-2.56348,2.50244,-0.580078,-0.418091,0.550629,-0.430573,-12860,-4073,-14872,-8928,-28670
55638,9.71387,0.0574219,0.129199,13.4967,-87.3962,60.3864,-0.976562,0.0610352,3.479,-0.579865,-0.418304,0.550446,-0.430878,-12604,-4585,-15640,-8928,-28670
55644,9.65645,0.105273,0.162695,13.0463,-87.3798,60.9027,-0.12207,1.52588,4.57764,-0.579681,-0.418488,0.550201,-0.431274,-12860,-5353,-15640,-8928,-28670
55650,9.55596,0.0382813,0.220117,12.42,-87.3633,61.5839,-0.366211,1.89209,6.16455,-0.579498,-0.41861,0.549957,-0.431732,-13372,-5353,-14872,-8928,-28670
55656,9.87656,0.177051,0.244043,10.7227,-87.3413,63.4076,-0.0610352,1.52588,9.27734,-0.57901,-0.418762,0.54953,-0.43277,-14140,-5097,-14104,-8928,-28670
55662,9.5416,0.0143555,0.344531,9.65149,-87.3358,64.5447,0.366211,0.732422,10.8032,-0.578705,-0.418793,0.549347,-0.43335,-14396,-4585,-13336,-8928,-28670
55668,9.92441,-0.0526367,0.234473,8.56934,-87.3358,65.6982,0.793457,0.366211,10.9863,-0.578339,-0.418823,0.549225,-0.43396,-14140,-4585,-12312,-8936,-28669
55674,9.76172,-0.0765625,0.239258,7.4762,-87.3303,66.8628,1.2207,0.854492,11.0474,-0.577972,-0.418884,0.549103,-0.434601,-13372,-4585,-11544,-8936,-28669
55680,9.92441,-0.124414,0.196191,6.39954,-87.3193,68.0054,1.28174,1.52588,10.8032,-0.577576,-0.418915,0.548981,-0.435242,-12092,-3817,-12056,-8936,-28669
55686,9.84307,-0.15791,0.253613,4.45496,-87.2974,70.0818,0.915527,1.64795,9.46045,-0.576843,-0.419006,0.548676,-0.436493,-12348,-3305,-12568,-8936,-28669
55692,9.81436,-0.234473,0.272754,3.59802,-87.2919,71.0046,0.793457,1.52588,8.8501,-0.576477,-0.419067,0.548523,-0.437103,-12092,-2793,-13080,-8936,-28669
55698,9.88613,-0.267969,0.244043,2.87842,-87.2809,71.7792,0.183105,1.0376,7.50732,-0.576172,-0.419128,0.54837,-0.437653,-11324,-2793,-13336,-8936,-28669
55704,9.85742,-0.234473,0.248828,2.34558,-87.2699,72.3669,-0.12207,0.976562,5.7373,-0.575867,-0.419189,0.548248,-0.438141,-10044,-2537,-13080,-8936,-28669
55710,9.77607,-0.162695,0.325391,1.85669,-87.2644,72.9053,0,0.671387,5.31006,-0.575378,-0.419373,0.547943,-0.438965,-7996,-489,-12312,-8936,-28669
55716,9.77129,-0.14834,0.354102,0.85144,-87.2699,74.0094,0.305176,-1.64795,5.49316,-0.575104,-0.419495,0.547852,-0.439331,-7996,1048,-11800,-8936,-28669
55722,9.83828,-0.172266,0.196191,0.346069,-87.2754,74.5642,0.0610352,-2.13623,5.43213,-0.574829,-0.419617,0.547791,-0.439697,-7996,3096,-11288,-8936,-28669
55728,9.8,-0.287109,0.153125,-0.0604248,-87.2809,75.0146,0.12207,-1.0376,4.45557,-0.574524,-0.419739,0.547729,-0.440002,-8252,4376,-10520,-8936,-28669
55734,9.94355,-0.277539,0.153125,-0.31311,-87.2754,75.3058,-0.305176,0,2.86865,-0.57428,-0.419861,0.547668,-0.440308,-7996,4888,-9240,-8936,-28669
55740,9.95791,-0.277539,0.287109,-0.340576,-87.2754,75.3552,-0.427246,0.366211,0.610352,-0.574005,-0.420074,0.547455,-0.440704,-7228,5912,-5912,-8936,-28669
55746,9.87656,-0.186621,0.272754,0.0494385,-87.2809,75.0037,-1.2207,-1.70898,-2.13623,-0.573944,-0.420227,0.547333,-0.440796,-7484,6424,-4376,-8936,-28669
55752,9.8,-0.0717773,0.330176,0.296631,-87.2919,74.7675,-0.976562,-2.50244,-2.13623,-0.573883,-0.42038,0.547272,-0.440796,-7228,7192,-3352,-8936,-28669
55758,9.73301,-0.0143555,0.358887,0.41748,-87.3083,74.6631,-0.671387,-3.35693,-0.854492,-0.573822,-0.420563,0.547241,-0.440765,-7484,7704,-2328,-8936,-28669
55764,9.82871,-0.0813477,0.344531,0.411987,-87.3303,74.6796,-0.793457,-5.12695,0.244141,-0.5737,-0.420715,0.547241,-0.440735,-7228,7704,-1304,-8936,-28669
55770,9.79043,-0.239258,0.234473,0.461426,-87.3633,74.6301,-1.2207,-6.04248,-0.305176,-0.573395,-0.42099,0.547455,-0.440613,-5692,7192,-1048,-8936,-28669
55776,9.97227,-0.406738,0.0717773,1.19202,-87.4127,73.8831,-1.40381,-4.21143,-4.57764,-0.573334,-0.421143,0.547577,-0.44043,-4924,6680,-1816,-8936,-28669
55782,9.95791,-0.406738,0.200977,2.22473,-87.4182,72.8229,-2.19727,-1.83105,-9.46045,-0.573364,-0.421265,0.547638,-0.440186,-4412,6936,-3096,-8936,-28669
55788,-18.7004,-59.9197,19.6574,43.9453,-84.5508,31.8219,202.393,264.282,-734.314,-0.573608,-0.421387,0.547607,-0.439789,-4668,7192,-4120,-8928,-28670
55794,2.73232,136.86,-75.4188,44.6539,-81.9196,31.8274,87.2192,369.019,-355.103,-0.59082,-0.437256,0.524017,-0.430145,-5180,7448,-6936,-8928,-28670
55800,26.0312,15.0254,26.816,34.7113,-82.6886,41.5887,-102.6,39.917,307.861,-0.599884,-0.433197,0.509888,-0.438599,-12092,536,-16152,-8928,-28670
55806,4.65596,-10.7092,2.38301,18.8525,-84.5947,58.1177,-12.0239,-132.263,205.078,-0.591614,-0.429474,0.515167,-0.447235,-16956,-5865,-24344,-8928,-28670
55812,-5.13447,-9.76172,1.06709,20.6158,-85.5121,56.3049,-52.7954,-187.805,38.5742,-0.584229,-0.428345,0.521454,-0.450745,-21820,-11753,32232,-8928,-28670
55818,12.0251,1.13408,-3.43096,26.3837,-86.1932,50.4767,-55.3589,-161.987,-16.9678,-0.579529,-0.431,0.526886,-0.447937,-24636,-15593,23272,-8928,-28670
55824,6.85713,2.3543,-2.89023,30.3333,-86.5558,46.6315,-22.8271,-90.5151,-1.70898,-0.576538,-0.434357,0.53064,-0.444153,-26172,-17641,16104,-8928,-28670
55830,6.9959,1.36377,-2.97158,31.1572,-86.6602,46.0712,6.40869,-25.2075,12.0239,-0.572632,-0.438416,0.531799,-0.443787,-25660,-17641,9704,-8928,-28670
55836,10.202,-0.674707,0.92832,26.7188,-86.5393,51.0315,1.28174,21.9116,24.1699,-0.571777,-0.438782,0.530579,-0.446014,-25404,-16873,9960,-8928,-28670
55842,11.2116,-1.21064,1.79443,26.2518,-86.5173,51.7072,-3.35693,4.76074,10.8032,-0.571075,-0.439087,0.529358,-0.448059,-24892,-16361,10984,-8928,-28670
55848,10.5273,-0.641211,1.54561,27.2626,-86.5338,50.9161,-1.28174,-10.1318,-2.19727,-0.570312,-0.43988,0.528412,-0.449341,-23612,-16105,11752,-8928,-28670
55854,9.75215,-0.583789,0.512012,29.0094,-86.5558,49.4,2.92969,-14.5874,-9.8877,-0.569427,-0.441254,0.527618,-0.450012,-22844,-14825,10984,-8928,-28670
55860,8.78555,-0.110059,-0.200977,30.8551,-86.5393,47.785,1.64795,-9.82666,-14.1602,-0.56781,-0.444733,0.525635,-0.451019,-21052,-12265,10984,-8928,-28670
55866,9.93398,0.263184,-0.263184,33.4259,-86.4404,45.6592,-1.52588,2.0752,-11.7188,-0.567261,-0.446259,0.524445,-0.451569,-20540,-10729,11496,-8928,-28670
55872,9.75215,-0.133984,0.301465,34.3542,-86.3745,44.9341,-3.05176,3.72314,-11.7188,-0.566803,-0.447601,0.523163,-0.452271,-20028,-8681,11752,-8928,-28670
55878,10.379,0.0287109,0.282324,35.3046,-86.3086,44.187,-3.60107,3.60107,-12.6953,-0.566406,-0.448853,0.521912,-0.452972,-20284,-7145,12008,-8928,-28670
55884,9.5416,0.291895,0.497656,36.189,-86.2482,43.5114,-1.95312,2.99072,-11.8408,-0.56604,-0.450104,0.52066,-0.453644,-20540,-6377,12264,-8928,-28670
55890,9.68994,0.440234,0.397168,36.936,-86.2152,42.973,-1.64795,-0.244141,-7.69043,-0.565002,-0.452606,0.518372,-0.455078,-22076,-6633,12264,-8928,-28670
55896,9.43633,0.521582,0.459375,37.6007,-86.2097,42.7094,-1.15967,-2.01416,2.80762,-0.56427,-0.453705,0.517517,-0.455841,-22588,-7913,13544,-8928,-28670
55902,9.57031,0.382812,0.330176,37.4469,-86.2262,43.0719,0.610352,-1.46484,7.69043,-0.563446,-0.454712,0.516724,-0.456787,-22588,-9961,15080,-8928,-28670
55908,9.72344,0.124414,0.373242,37.1393,-86.2482,43.5883,0.488281,-1.28174,9.8877,-0.5625,-0.455597,0.515991,-0.457886,-22332,-11753,16360,-8928,-28670
55914,9.5416,0.0813477,0.354102,36.7603,-86.2811,44.1815,0.732422,-1.2207,10.8643,-0.561493,-0.456421,0.51535,-0.459015,-22844,-12777,17896,-8928,-28670
55920,9.91006,0.0526367,0.272754,36.2714,-86.3141,44.8682,0.732422,-1.28174,12.3291,-0.559448,-0.457947,0.51413,-0.461365,-22844,-13289,18152,-8928,-28670
55926,10.001,-0.00957031,0.277539,35.0189,-86.391,46.5106,-0.366211,-1.34277,14.5874,-0.558411,-0.458618,0.513611,-0.462524,-22332,-12521,19176,-8928,-28670
55932,9.6708,0.0813477,0.311035,34.184,-86.4349,47.5433,0.610352,-0.183105,16.0522,-0.557343,-0.459259,0.513123,-0.463715,-21564,-11753,19944,-8928,-28670
55938,9.64688,0.0526367,0.363672,33.2336,-86.4789,48.6859,1.15967,-0.366211,17.395,-0.556274,-0.459839,0.512604,-0.464966,-20796,-11241,20456,-8928,-28670
55944,9.66602,-0.0669922,0.382812,32.2833,-86.5283,49.823,0.427246,-1.2207,17.4561,-0.555176,-0.460388,0.512177,-0.466217,-20028,-10729,21224,-8928,-28670
55950,10.0728,-0.062207,0.253613,31.311,-86.5778,50.9766,1.0376,-1.09863,18.2495,-0.552979,-0.461426,0.511414,-0.468628,-17724,-9449,21224,-8928,-28670
55956,9.64688,-0.277539,0.349316,29.1907,-86.6711,53.454,1.15967,-0.854492,16.9678,-0.55188,-0.461914,0.511047,-0.469849,-16444,-8169,20968,-8928,-28670
55962,10.001,-0.253613,0.239258,28.2568,-86.7096,54.5691,0.793457,-1.09863,15.3198,-0.550812,-0.462402,0.510681,-0.471039,-15676,-6377,21224,-8928,-28670
55968,9.84307,-0.282324,0.387598,27.4438,-86.748,55.5414,0.305176,-1.34277,13.3667,-0.549774,-0.462921,0.510315,-0.472137,-14140,-4585,21480,-8928,-28670
55974,10.0105,-0.31582,0.373242,26.8341,-86.781,56.3049,-0.488281,-2.38037,10.9253,-0.548828,-0.463409,0.509949,-0.473145,-12348,-2537,22504,-8928,-28670
55980,9.87178,-0.253613,0.459375,26.4001,-86.825,56.8817,-0.366211,-5.24902,8.54492,-0.547058,-0.464508,0.509277,-0.474823,-7740,-1001,26600,-8928,-28670
55986,9.80957,-0.320605,0.421094,25.9003,-86.9128,57.6453,-0.427246,-6.95801,6.65283,-0.546204,-0.465088,0.509033,-0.475525,-5180,-489,28648,-8928,-28670
55992,9.93877,-0.411523,0.397168,25.9772,-86.9678,57.6782,-0.671387,-8.72803,4.57764,-0.54541,-0.465668,0.50882,-0.476074,-3644,24,29928,-8928,-28670
55998,9.90527,-0.397168,0.373242,26.3342,-87.0172,57.4146,-1.34277,-10.2539,1.95312,-0.544647,-0.466278,0.508667,-0.476501,-2108,536,29416,-8928,-28670
56004,9.9627,-0.425879,0.334961,26.9934,-87.0721,56.8323,-1.89209,-11.9019,-0.793457,-0.544006,-0.466919,0.508575,-0.476746,-1084,2072,29672,-8928,-28670
56010,9.8335,-0.339746,0.205762,27.9492,-87.1216,55.9204,-3.78418,-12.3901,-5.85938,-0.542999,-0.468109,0.508575,-0.476685,453,3864,30696,-8936,-28669
56016,9.80479,-0.248828,0.143555,30.3003,-87.204,53.6078,-4.39453,-11.5356,-6.83594,-0.542725,-0.468658,0.508667,-0.47641,709,4376,31720,-8936,-28669
56022,9.7665,-0.234473,0.162695,31.5088,-87.2314,52.3883,-5.00488,-10.5591,-7.32422,-0.542511,-0.469116,0.508759,-0.476074,1221,4632,31976,-8928,-28670
56028,9.87656,-0.239258,0.124414,32.7557,-87.2589,51.1139,-6.10352,-9.82666,-8.11768,-0.54245,-0.469452,0.508911,-0.475647,1733,5144,30952,-8928,-28670
56034,9.84785,-0.215332,0.13877,33.9752,-87.2809,49.834,-8.72803,-9.8877,-7.8125,-0.542511,-0.469727,0.509125,-0.475098,2245,5912,30184,-8928,-28670
56040,9.8,-0.110059,0.172266,35.2716,-87.3029,48.4442,-9.39941,-8.8501,-8.78906,-0.542969,-0.469818,0.509918,-0.473633,4037,8472,29928,-8928,-28670
56046,9.77607,0.0382813,0.196191,37.6501,-87.3248,45.8624,-7.62939,-7.56836,-8.23975,-0.543335,-0.469727,0.510406,-0.472778,4805,10008,30952,-8928,-28670
56052,9.69951,0.0143555,0.210547,38.6554,-87.3413,44.7528,-6.46973,-7.44629,-6.7749,-0.543732,-0.469604,0.510864,-0.471954,6085,11032,31720,-8928,-28670
56058,-5.86182,-4.75166,0.732129,40.8582,-87.0667,42.3083,6.34766,27.2827,-52.5513,-0.544098,-0.469421,0.511353,-0.471161,6853,12056,-32536,-8928,-28670
56064,140.329,-52.0816,4.87607,47.3401,-82.5403,36.9525,297.485,578.186,-698.486,-0.546753,-0.468933,0.51062,-0.46936,7109,12568,-29976,-8928,-28670
56070,35.1709,-1.61738,43.2722,43.363,-81.557,40.9021,-21.6064,-34.1797,335.815,-0.574951,-0.474182,0.470886,-0.471954,3781,8216,-29464,-8928,-28670
56076,22.3036,-8.52236,3.81855,26.0596,-83.9081,58.0573,9.76562,-99.7925,288.086,-0.568146,-0.466949,0.479523,-0.478668,-316,2840,30440,-8928,-28670
56082,0.425879,-14.4033,1.9332,22.7527,-84.9518,60.9961,-42.9077,-167.542,140.076,-0.560303,-0.462677,0.488098,-0.483368,-4412,-3561,22248,-8928,-28670
56088,-0.535937,-6.34512,-1.46426,27.9547,-85.7648,55.2722,-61.5845,-187.439,-13.1226,-0.555359,-0.461334,0.496582,-0.48172,-8508,-8937,13288,-8928,-28670
56094,11.8098,2.31602,-3.21563,34.0521,-86.2756,48.6914,-57.7393,-136.047,-24.7192,-0.553619,-0.463104,0.502869,-0.475433,-10556,-12009,5352,-8928,-28670
56100,7.90986,2.03369,-3.20127,37.2711,-86.5558,45.1813,-1.40381,-10.437,22.583,-0.552734,-0.464325,0.510345,-0.467255,-9532,-13545,-3097,-8928,-28670
56106,9.45547,0.492871,-1.0001,32.0197,-86.6602,50.1361,3.17383,25.4517,38.147,-0.552734,-0.463226,0.511719,-0.466858,-8764,-13289,-3097,-8928,-28670
56112,10.4316,-0.248828,0.942676,28.504,-86.6162,53.5364,4.15039,27.4048,30.0903,-0.55307,-0.461182,0.512421,-0.467682,-8252,-13545,-1049,-8928,-28670
56118,10.8575,-0.334961,1.8375,26.6693,-86.6217,55.2283,0.0610352,8.17871,18.3105,-0.553589,-0.459351,0.512878,-0.468384,-8252,-13033,1000,-8928,-28670
56124,10.5034,-0.282324,1.15322,26.2848,-86.6821,55.47,-0.183105,-9.33838,7.8125,-0.553955,-0.458099,0.513611,-0.468353,-8252,-12265,2792,-8928,-28670
56130,10.1158,0.0478516,-0.564648,26.6473,-86.7371,54.9866,4.15039,-2.19727,0.549316,-0.554352,-0.457092,0.515381,-0.466919,-5948,-10985,4072,-8928,-28670
56136,8.86211,-0.200977,-0.334961,25.8673,-86.7206,55.5249,4.57764,7.87354,3.60107,-0.55481,-0.456543,0.51593,-0.46637,-4412,-10217,4840,-8928,-28670
56142,10.0153,0.0430664,-0.162695,24.8236,-86.6711,56.4368,1.77002,13.4888,5.43213,-0.555389,-0.455688,0.516296,-0.466064,-3132,-9193,5864,-8928,-28670
56148,9.79043,-0.196191,0.373242,23.7964,-86.6162,57.3212,0.488281,13.6108,5.43213,-0.556122,-0.454651,0.516632,-0.46582,-1340,-7401,6888,-8928,-28670
56154,10.4412,-0.0765625,0.540723,22.9175,-86.5723,58.0627,0.366211,12.4512,4.45557,-0.556885,-0.453552,0.516968,-0.465576,197,-6121,8680,-8928,-28670
56160,9.57031,-0.14834,0.46416,22.1594,-86.5283,58.6945,5.43213,9.09424,4.76074,-0.558289,-0.45163,0.517639,-0.465057,1989,-3049,10472,-8928,-28670
56166,10.0488,-0.00957031,0.267969,20.6873,-86.4624,59.9414,4.94385,9.27734,5.06592,-0.558838,-0.450806,0.517975,-0.464813,2501,-2025,10984,-8928,-28670
56172,9.65645,-0.0382813,0.411523,19.9237,-86.4294,60.5951,4.39453,8.91113,5.67627,-0.559387,-0.449951,0.518311,-0.4646,2501,-1001,12264,-8928,-28670
56178,9.86221,-0.14834,0.397168,19.1382,-86.4075,61.2598,2.74658,7.8125,6.46973,-0.559937,-0.449097,0.518677,-0.464386,3013,-233,13032,-8928,-28670
56184,9.84307,-0.220117,0.401953,18.4735,-86.3745,61.7981,2.31934,8.17871,4.82178,-0.560455,-0.448212,0.519104,-0.464142,5317,1304,13288,-8928,-28670
56190,9.84785,-0.162695,0.382812,17.5781,-86.3086,62.4518,2.74658,7.69043,1.83105,-0.561646,-0.446533,0.519836,-0.463501,6085,2328,11240,-8928,-28670
56196,9.75693,-0.0861328,0.459375,17.1442,-86.2811,62.7594,1.89209,6.65283,2.56348,-0.562256,-0.44574,0.520172,-0.463104,7365,2840,9448,-8928,-28670
56202,9.85742,-0.0191406,0.512012,16.6168,-86.2701,63.1549,0.488281,4.76074,4.45557,-0.562836,-0.444946,0.520599,-0.462708,8133,4120,7656,-8928,-28670
56208,9.67559,-0.0430664,0.607715,15.9686,-86.2646,63.6768,0,2.62451,6.7749,-0.563354,-0.444122,0.521088,-0.462311,9157,5400,6376,-8928,-28670
56214,9.75693,-0.100488,0.574219,15.3094,-86.2701,64.2151,0.915527,0.915527,7.50732,-0.563782,-0.443298,0.521667,-0.461914,11205,8216,7144,-8928,-28670
56220,9.99141,-0.330176,0.378027,14.0955,-86.2866,65.1984,1.70898,0.671387,6.10352,-0.564423,-0.441772,0.522888,-0.461212,11973,10008,7400,-8928,-28670
56226,10.0249,-0.287109,0.46416,13.667,-86.2921,65.506,0.244141,0,4.57764,-0.564789,-0.441071,0.523468,-0.460815,12741,11800,7656,-8928,-28670
56232,9.70908,-0.301465,0.531152,13.3813,-86.3086,65.6598,-1.0376,-2.01416,2.92969,-0.565155,-0.440369,0.524048,-0.460358,14021,13080,6376,-8928,-28670
56238,9.95791,-0.29668,0.449805,13.2385,-86.3251,65.6653,-2.0752,-3.479,1.34277,-0.565552,-0.439697,0.524689,-0.459778,15045,14360,4328,-8928,-28670
56244,9.88135,-0.277539,0.492871,13.1891,-86.347,65.5774,-2.0752,-4.27246,0.305176,-0.565979,-0.439087,0.52536,-0.459076,16325,15384,1256,-8936,-28669
56250,9.72344,-0.229688,0.47373,13.288,-86.391,65.2039,-1.58691,-4.5166,-1.40381,-0.566833,-0.437927,0.526642,-0.457611,16837,15896,-281,-8936,-28669
56256,9.82871,-0.14834,0.488086,13.3759,-86.4185,64.9731,-2.31934,-5.92041,-1.15967,-0.567291,-0.437378,0.527283,-0.456848,17349,16152,-25,-8928,-28670
56262,9.63731,-0.129199,0.497656,13.4088,-86.4569,64.8029,-3.17383,-7.69043,0,-0.567719,-0.436859,0.527954,-0.456055,17349,16408,-25,-8928,-28670
56268,9.73301,-0.0765625,0.502441,13.3868,-86.5063,64.6875,-3.23486,-9.0332,1.0376,-0.568054,-0.43631,0.528717,-0.455261,17349,17176,-25,-8928,-28670
56274,9.69473,-0.186621,0.416309,13.2935,-86.5503,64.6436,-2.80762,-9.39941,2.01416,-0.568359,-0.435791,0.52951,-0.454468,17349,19480,2280,-8928,-28670
56280,9.86699,-0.234473,0.397168,13.0957,-86.6382,64.5886,-1.40381,-7.93457,1.64795,-0.568878,-0.434784,0.531067,-0.452972,17093,20504,4072,-8928,-28670
56286,9.80479,-0.263184,0.311035,13.0353,-86.6766,64.5117,-2.0752,-7.93457,1.2207,-0.569153,-0.434265,0.531799,-0.452271,16837,21272,5608,-8928,-28670
56292,9.78086,-0.253613,0.301465,13.0298,-86.7206,64.3854,-3.23486,-7.87354,0.549316,-0.569427,-0.433746,0.532532,-0.451538,16069,22040,6632,-8928,-28670
56298,9.79043,-0.248828,0.287109,13.0518,-86.7535,64.2206,-4.02832,-7.32422,0,-0.569733,-0.433228,0.533295,-0.450745,15557,22552,6632,-8928,-28670
56304,9.84785,-0.267969,0.272754,13.0847,-86.792,64.0448,-4.69971,-6.89697,-0.244141,-0.570099,-0.432678,0.534027,-0.449951,16325,23064,9448,-8928,-28670
56310,9.86221,-0.358887,0.325391,13.4308,-86.8414,63.3856,-5.98145,-5.79834,-2.99072,-0.570953,-0.431488,0.535492,-0.448273,17349,22808,10728,-8928,-28670
56316,9.88135,-0.29668,0.287109,13.8208,-86.8689,62.8253,-6.89697,-6.10352,-4.63867,-0.571472,-0.430908,0.536194,-0.447327,17861,22552,11752,-8928,-28670
56322,9.90049,-0.320605,0.282324,14.3097,-86.8964,62.1606,-8.72803,-7.08008,-5.49316,-0.572052,-0.430328,0.536896,-0.44632,17605,22808,12008,-8928,-28670
56328,9.87178,-0.334961,0.287109,14.9139,-86.9293,61.3696,-10.5591,-8.23975,-6.53076,-0.572632,-0.429718,0.537659,-0.445221,16837,22552,11496,-8928,-28670
56334,9.86221,-0.248828,0.358887,15.6555,-86.9623,60.4358,-11.1084,-8.8501,-7.75146,-0.573273,-0.429077,0.538483,-0.444031,15045,22552,10472,-8928,-28670
56340,95.3442,-2.83281,-28.8497,42.171,-81.7273,35.0684,317.017,583.618,-632.446,-0.581512,-0.433868,0.531952,-0.436462,14789,22040,9960,-8928,-28670
56346,-23.8684,57.5559,-3.56494,34.173,-81.3098,42.7423,-136.169,202.026,130.371,-0.601868,-0.443329,0.500092,-0.437012,12229,19992,9192,-8928,-28670
56352,26.0312,-5.07705,30.7733,25.8948,-82.3425,51.2787,-1.09863,-58.8989,313.293,-0.605469,-0.434509,0.498657,-0.442505,8389,15128,5864,-8928,-28670
56358,17.6046,-7.83809,3.58887,19.5557,-83.7268,57.5024,-59.2041,-196.167,245.605,-0.597473,-0.429657,0.505402,-0.450409,4293,8984,1512,-8928,-28670
56364,-1.40205,-10.5991,1.04795,17.9407,-85.1605,58.7219,-90.5151,-263.855,114.746,-0.588867,-0.427216,0.515686,-0.452362,-4156,-3817,-12057,-8928,-28670
56370,10.6996,2.0002,-2.03369,23.8403,-86.6876,52.4103,-16.2354,-102.966,10.9863,-0.578339,-0.429657,0.533295,-0.443176,-4924,-7913,-18457,-8936,-28669
56376,5.83789,1.95713,-3.74199,23.3569,-86.8744,53.1299,22.644,-30.7007,23.3765,-0.575775,-0.431335,0.536163,-0.441437,-4924,-8425,-19993,-8936,-28669
56382,9.0918,0.784766,-3.27783,19.7919,-86.9238,56.9037,9.0332,7.75146,42.2363,-0.5737,-0.432587,0.536469,-0.442505,-4156,-8425,-17945,-8936,-28669
56388,10.1828,-0.46416,-0.416309,15.8972,-86.9128,60.9412,-5.37109,16.2964,41.626,-0.572296,-0.432526,0.536285,-0.444611,-3388,-7657,-15385,-8936,-28669
56394,10.824,-1.39248,1.37813,13.5681,-86.9238,63.3801,-9.82666,6.22559,26.3062,-0.57132,-0.431976,0.536163,-0.446564,-1596,-5865,-8473,-8936,-28669
56400,9.66123,-0.291895,1.13408,13.1342,-87.1271,63.9404,-5.98145,-23.1323,4.76074,-0.569733,-0.43219,0.536377,-0.44812,-60,-4585,-5657,-8936,-28669
56406,10.0728,0.172266,-0.272754,13.3319,-87.2424,63.8196,-0.488281,-21.7896,4.57764,-0.568878,-0.4328,0.536865,-0.447998,1477,-3049,-1561,-8936,-28669
56412,9.30234,-0.062207,-0.813477,12.8979,-87.3138,64.3524,0.793457,-11.2915,8.42285,-0.567963,-0.433533,0.537231,-0.448029,2757,-1513,2792,-8936,-28669
56418,9.10137,-0.440234,-0.531152,12.0959,-87.3358,65.2698,0.12207,-1.2207,9.46045,-0.567139,-0.434082,0.537292,-0.448456,4293,-233,7656,-8936,-28669
56424,10.4029,-0.521582,-0.0478516,11.4532,-87.3303,66.0278,-1.64795,3.90625,6.65283,-0.566467,-0.434479,0.537109,-0.449158,6597,2072,15592,-8936,-28669
56430,10.3216,-0.177051,0.387598,10.9863,-87.3193,66.687,-1.46484,2.2583,1.52588,-0.565552,-0.435211,0.536316,-0.450531,7621,2840,19688,-8936,-28669
56436,9.25928,-0.16748,0.334961,10.8984,-87.3248,66.8573,-0.427246,0.12207,1.70898,-0.565186,-0.435608,0.53598,-0.451019,8389,4120,22760,-8936,-28669
56442,9.73779,-0.0334961,-0.00957031,10.6567,-87.3303,67.1869,0.732422,1.15967,2.92969,-0.564819,-0.435974,0.535736,-0.451416,9157,5656,24296,-8936,-28669
56448,9.78564,-0.110059,-0.100488,10.2393,-87.3138,67.7087,2.31934,5.67627,3.90625,-0.564423,-0.43634,0.535461,-0.451904,10437,7192,26088,-8936,-28669
56454,9.74736,-0.215332,0.0957031,9.77234,-87.2864,68.291,1.77002,8.17871,3.96729,-0.56366,-0.437012,0.534454,-0.453369,11973,10520,26600,-8936,-28669
56460,9.52246,-0.200977,0.344531,8.93738,-87.215,69.3512,2.44141,9.0332,3.2959,-0.563324,-0.437347,0.533875,-0.454163,13509,12312,27624,-8936,-28669
56466,9.63731,-0.110059,0.301465,8.44299,-87.182,69.939,4.02832,9.0332,4.21143,-0.563019,-0.437622,0.533356,-0.454895,14789,13592,27880,-8936,-28669
56472,9.78086,-0.16748,0.339746,7.77283,-87.149,70.675,4.63867,8.72803,6.04248,-0.562744,-0.437805,0.532898,-0.455566,16325,14872,28136,-8936,-28669
56478,9.8335,-0.248828,0.291895,6.90491,-87.1216,71.5649,4.3335,8.17871,7.99561,-0.562561,-0.437805,0.532593,-0.456146,17605,15896,29160,-8936,-28669
56484,9.93398,-0.339746,0.301465,6.09192,-87.0941,72.3615,4.39453,7.99561,7.38525,-0.562531,-0.437225,0.532532,-0.456818,18373,16408,30440,-8936,-28669
56490,9.81436,-0.301465,0.311035,4.69666,-87.0392,73.6414,5.12695,7.62939,5.5542,-0.562714,-0.436707,0.532715,-0.456848,19141,16664,31464,-8936,-28669
56496,9.68037,-0.363672,0.425879,4.12537,-87.0117,74.1302,4.94385,6.7749,5.06592,-0.563019,-0.436127,0.532928,-0.456787,20421,16920,32744,-8936,-28669
56502,10.044,-0.258398,0.29668,3.59802,-86.9897,74.5697,5.06592,6.7749,4.69971,-0.563385,-0.435486,0.533234,-0.456604,21701,17432,31976,-8936,-28669
56508,9.74736,-0.248828,0.46416,3.12012,-86.9623,74.9487,4.82178,6.16455,4.21143,-0.563782,-0.434845,0.533539,-0.45639,23237,18968,31208,-8936,-28669
56514,9.75215,-0.339746,0.435449,2.72461,-86.9513,75.2454,3.78418,4.27246,3.479,-0.564575,-0.433563,0.534241,-0.455811,25285,21528,29416,-8936,-28669
56520,10.0105,-0.421094,0.334961,2.45544,-86.9293,75.2673,1.34277,2.56348,-0.488281,-0.565033,-0.432922,0.534668,-0.455322,26565,22808,28648,-8936,-28669
56526,9.97705,-0.416309,0.320605,2.64221,-86.9293,74.9323,0.12207,1.64795,-3.05176,-0.565582,-0.432281,0.535126,-0.454742,28101,23832,28648,-8936,-28669
56532,9.80479,-0.349316,0.373242,3.01025,-86.9293,74.4104,-0.549316,0.732422,-5.00488,-0.566223,-0.431641,0.535614,-0.453979,29637,24600,28904,-8936,-28669
56538,9.8,-0.263184,0.397168,3.38928,-86.9293,73.8721,-0.854492,0,-5.12695,-0.566895,-0.431,0.536133,-0.453125,30917,24856,28136,-8936,-28669
56544,9.7043,-0.177051,0.440234,3.75732,-86.9403,73.3502,-1.2207,-1.58691,-4.88281,-0.568207,-0.429779,0.537231,-0.451324,32197,25112,24040,-8936,-28669
56550,9.64209,-0.172266,0.421094,4.25171,-86.9788,72.5537,-1.2207,-4.21143,-2.80762,-0.568787,-0.429199,0.537842,-0.450409,31685,25880,21736,-8936,-28669
56556,9.84307,-0.16748,0.363672,4.35608,-87.0062,72.301,-1.28174,-4.45557,-1.77002,-0.569275,-0.42865,0.538483,-0.449524,31429,26648,20200,-8936,-28669
56562,9.73779,-0.177051,0.358887,4.37256,-87.0282,72.1417,-0.854492,-4.21143,-0.793457,-0.569763,-0.42807,0.539154,-0.4487,31429,26904,19176,-8936,-28669
56568,9.75215,-0.224902,0.287109,4.31213,-87.0557,72.0593,-0.732422,-4.15039,0,-0.57019,-0.42749,0.539825,-0.447906,31429,27160,17896,-8936,-28669
56574,9.70908,-0.200977,0.253613,4.22424,-87.0776,72.0044,-0.732422,-3.60107,0.183105,-0.571075,-0.42627,0.541138,-0.44635,31941,27672,16872,-8936,-28669
56580,9.84785,-0.234473,0.224902,4.021,-87.1051,71.9165,-0.915527,-1.64795,0.244141,-0.571533,-0.425598,0.541779,-0.445618,31685,27928,17128,-8936,-28669
56586,9.8,-0.229688,0.277539,3.90015,-87.1106,71.889,-1.15967,-1.2207,0.305176,-0.572021,-0.424927,0.542389,-0.444885,31429,27672,17640,-8936,-28669
56592,9.72822,-0.205762,0.358887,3.7793,-87.1216,71.8726,-0.976562,-0.854492,0.305176,-0.57251,-0.424225,0.542999,-0.444153,31173,26904,19176,-8936,-28669
56598,9.78086,-0.124414,0.392383,3.54309,-87.1326,71.9659,-0.854492,-1.46484,1.46484,-0.573029,-0.423553,0.54361,-0.44342,30405,25880,21224,-8936,-28669
56604,9.8335,-0.191406,0.368457,3.20801,-87.1436,72.1637,-0.671387,-2.38037,2.56348,-0.573853,-0.42218,0.544861,-0.442108,30149,24856,24552,-8936,-28669
56610,9.77607,-0.248828,0.31582,2.34009,-87.1875,72.7679,-0.488281,-4.21143,3.60107,-0.574188,-0.421539,0.545502,-0.441498,30405,24344,25576,-8936,-28669
56616,9.83828,-0.30625,0.368457,1.91162,-87.215,73.0701,-0.732422,-4.82178,3.479,-0.574493,-0.420898,0.546204,-0.440857,30917,24344,26856,-8936,-28669
56622,9.85742,-0.29668,0.401953,1.5271,-87.2479,73.3282,-0.610352,-5.79834,2.99072,-0.574799,-0.420258,0.546875,-0.440216,31173,24600,27368,-8936,-28669
56628,-36.884,-42.2769,19.198,44.8572,-85.7043,30.575,171.814,53.1006,-589.966,-0.575043,-0.419678,0.547577,-0.439575,30917,25112,27880,-8936,-28669
56634,-20.3465,55.7901,28.5626,56.3708,-82.3096,19.0613,70.0684,241.028,-679.382,-0.602936,-0.446777,0.513123,-0.416443,27333,23064,26344,-8936,-28669
56640,22.7438,3.01465,6.98154,53.0365,-82.9962,22.0331,-9.76562,-72.3877,233.765,-0.607025,-0.445465,0.511841,-0.413483,21445,17432,22504,-8936,-28669
56646,14.7,-2.57441,0.449805,50.5481,-84.3036,24.2853,-62.9883,-127.625,236.023,-0.601227,-0.441528,0.518036,-0.418457,12741,8216,18664,-8936,-28669
56652,-2.94287,-5.46465,0.449805,49.0979,-85.5121,25.5048,-57.4951,-144.836,198.73,-0.595062,-0.437073,0.526672,-0.421112,3013,-2281,15080,-8936,-28669
56658,1.01445,-0.425879,2.03848,50.6744,-86.5009,23.7305,-47.7905,-152.222,135.559,-0.589081,-0.433807,0.534912,-0.422516,-5948,-12521,12264,-8936,-28669
56664,8.22568,-3.39746,-2.15332,49.9493,-87.1271,24.5325,3.54004,-77.7588,102.051,-0.579987,-0.431671,0.54541,-0.423889,-16188,-23273,13288,-8936,-28669
56670,12.7237,-1.51689,-3.35918,45.1208,-87.4512,29.6631,12.5732,12.4512,25.0244,-0.577698,-0.431732,0.546356,-0.42572,-17980,-24553,16616,-8936,-28669
56676,8.93867,-0.756055,0.0574219,42.5775,-87.4292,32.2339,-3.66211,16.4185,13.1836,-0.577179,-0.431396,0.546021,-0.427185,-18236,-23017,19432,-8936,-28669
56682,9.9292,0.31582,0.789551,40.9296,-87.4677,33.8379,-18.8599,1.15967,15.4419,-0.577271,-0.430878,0.545715,-0.428009,-17980,-20457,22248,-8936,-28669
56688,8.98652,0.727344,1.51689,39.2871,-87.605,35.4254,-21.7285,-14.7705,27.6489,-0.57724,-0.430176,0.546082,-0.428253,-16956,-17897,24296,-8936,-28669
56694,9.9627,1.0958,0.172266,36.546,-87.7863,38.1775,-10.0708,-17.7002,39.4287,-0.5755,-0.428833,0.548218,-0.42923,-13628,-12265,29416,-8936,-28669
56700,9.73301,0.239258,-0.124414,27.724,-88.0719,47.2522,11.1084,-7.44629,41.9312,-0.574066,-0.428497,0.548859,-0.430664,-10812,-9961,32232,-8936,-28669
56706,10.1876,-0.555078,-0.234473,22.6923,-88.1708,52.3993,5.5542,-5.37109,38.6353,-0.572632,-0.428253,0.549255,-0.432281,-8252,-7145,-30488,-8936,-28669
56712,10.0584,-0.655566,-0.196191,17.7814,-88.2367,57.3981,0.549316,-3.60107,33.8135,-0.571411,-0.427948,0.549622,-0.433746,-5692,-4073,-27672,-8928,-28670
56718,10.4125,-0.660352,-0.272754,13.4967,-88.2587,61.7706,1.0376,1.0376,26.7944,-0.570404,-0.427612,0.549957,-0.434967,-2108,-2281,-25112,-8928,-28670
56724,10.0201,-0.6125,0.0957031,10.1019,-88.2532,65.2478,1.40381,4.08936,20.2026,-0.569092,-0.427155,0.550018,-0.437103,4805,1560,-19480,-8936,-28669
56730,9.91963,-0.47373,-0.0191406,5.57556,-88.1873,69.95,4.3335,8.23975,12.0239,-0.568665,-0.427063,0.549774,-0.438019,7877,3864,-18200,-8936,-28669
56736,9.87656,-0.516797,-0.0861328,3.96057,-88.1433,71.6309,1.46484,9.0332,9.64355,-0.568329,-0.427032,0.549438,-0.438934,10949,6936,-17432,-8936,-28669
56742,9.98662,-0.492871,-0.00957031,2.79602,-88.0884,72.8503,0.183105,10.8032,7.01904,-0.568115,-0.426941,0.549103,-0.439667,13509,10520,-16408,-8936,-28669
56748,9.75215,-0.497656,-0.0143555,1.93359,-88.017,73.7677,1.0376,13.4277,5.31006,-0.568054,-0.426788,0.548767,-0.440338,15813,14104,-16920,-8936,-28669
56754,9.8335,-0.60293,0.129199,1.41174,-87.9401,74.3225,0.12207,15.564,0.732422,-0.568268,-0.426453,0.547852,-0.441528,21445,20504,-16664,-8936,-28669
56760,9.93398,-0.373242,-0.00478516,1.2854,-87.7698,74.4983,1.15967,17.7002,-0.915527,-0.568542,-0.426239,0.547394,-0.441956,23749,23576,-17432,-8936,-28669
56766,9.99619,-0.468945,-0.0334961,1.41174,-87.6709,74.3719,0.854492,20.0195,-1.77002,-0.568909,-0.425995,0.546875,-0.442383,26565,26136,-17944,-8936,-28669
56772,9.95312,-0.521582,0.15791,1.70288,-87.5665,74.0698,-0.488281,21.1182,-3.41797,-0.569366,-0.42569,0.546295,-0.442749,28613,28440,-17176,-8936,-28669
56778,9.73779,-0.401953,0.263184,2.08191,-87.4567,73.6688,-0.0610352,21.9116,-4.45557,-0.570007,-0.425293,0.545776,-0.442993,30405,30744,-16152,-8936,-28669
56784,9.80479,-0.401953,0.368457,2.46643,-87.3468,73.2458,-0.671387,21.3623,-5.67627,-0.571411,-0.424347,0.544769,-0.443268,-32059,-32232,-13592,-8936,-28669
56790,9.86699,-0.277539,0.282324,3.25195,-87.1326,72.356,0.793457,21.9116,-5.37109,-0.572205,-0.423828,0.544342,-0.443298,-30523,-31208,-12824,-8936,-28669
56796,9.63252,-0.263184,0.363672,3.50464,-87.0282,72.0483,1.15967,21.4844,-4.5166,-0.572998,-0.423279,0.543915,-0.443329,-29755,-30184,-12312,-8936,-28669
56802,9.8335,-0.31582,0.425879,3.73535,-86.9293,71.7517,0.305176,19.8364,-4.45557,-0.573792,-0.422699,0.543518,-0.443359,-29499,-29928,-12056,-8936,-28669
56808,9.80479,-0.263184,0.516797,3.92212,-86.8414,71.499,0.427246,18.1274,-4.02832,-0.574585,-0.422119,0.543182,-0.443298,-28987,-29160,-12568,-8936,-28669
56814,9.80957,-0.387598,0.502441,4.04846,-86.759,71.2958,-0.549316,14.2212,-3.60107,-0.57605,-0.420898,0.542786,-0.443024,-28987,-28136,-17944,-8936,-28669
56820,9.84785,-0.30625,0.526367,4.38354,-86.6217,70.7849,-0.12207,13.0005,-4.21143,-0.576752,-0.420288,0.542694,-0.44278,-28475,-27624,-21272,-8936,-28669
56826,9.79043,-0.334961,0.488086,4.57581,-86.5668,70.5048,0,12.0239,-4.21143,-0.577454,-0.419708,0.542633,-0.442505,-27963,-26856,-23576,-8936,-28669
56832,9.81914,-0.349316,0.531152,4.80652,-86.5118,70.1752,-0.854492,10.7422,-4.76074,-0.578156,-0.419128,0.542603,-0.442169,-27451,-26600,-26392,-8936,-28669
56838,9.75215,-0.205762,0.545508,5.03723,-86.4679,69.8401,-1.52588,9.0332,-4.76074,-0.578857,-0.418549,0.542633,-0.441772,-26683,-26344,-29208,-8936,-28669
56844,9.8,-0.177051,0.516797,5.13611,-86.4294,69.6313,-2.68555,5.98145,-1.77002,-0.580139,-0.417389,0.542908,-0.440857,-26171,-26600,30696,-8936,-28669
56850,9.68516,-0.162695,0.564648,5.00977,-86.38,69.549,-1.89209,5.12695,0,-0.580688,-0.416779,0.543152,-0.440399,-25915,-27112,28648,-8936,-28669
56856,9.62773,-0.124414,0.421094,4.71863,-86.358,69.7412,-1.0376,5.49316,2.19727,-0.581177,-0.416168,0.543427,-0.440002,-25403,-28136,26600,-8936,-28669
56862,9.65166,-0.13877,0.44502,4.2572,-86.3306,70.1093,-1.09863,5.92041,4.39453,-0.581604,-0.415527,0.543732,-0.439667,-25147,-28648,25064,-8936,-28669
56868,9.65645,-0.0526367,0.516797,3.59802,-86.3086,70.6805,-0.183105,6.04248,7.14111,-0.582001,-0.414825,0.544037,-0.439423,-24635,-28648,23784,-8936,-28669
56874,9.68516,-0.162695,0.564648,2.71912,-86.2811,71.4825,-0.244141,4.21143,12.7563,-0.58252,-0.413391,0.544708,-0.43924,-23867,-28392,20968,-8936,-28669
56880,9.81436,-0.263184,0.516797,0.494385,-86.2537,73.559,0,3.23486,14.4043,-0.582642,-0.412628,0.545135,-0.43927,-23611,-28648,19688,-8936,-28669
56886,9.80957,-0.334961,0.373242,-0.670166,-86.2372,74.6631,0.488281,4.21143,14.5874,-0.582703,-0.411865,0.545624,-0.439331,-23611,-28648,18920,-8936,-28669
56892,9.83828,-0.425879,0.31582,-1.77429,-86.2097,75.7013,0.671387,5.7373,13.9771,-0.582764,-0.411072,0.546051,-0.439423,-23611,-29160,18408,-8936,-28669
56898,9.85264,-0.397168,0.282324,-2.80701,-86.1713,76.6626,0.427246,7.75146,13.2446,-0.582886,-0.410278,0.546417,-0.439545,-22587,-29928,18152,-8936,-28669
56904,9.75215,-0.334961,0.354102,-4.8999,-86.0724,78.5962,-2.13623,10.0708,14.6484,-0.583313,-0.4086,0.547058,-0.439789,-21051,-29672,16104,-8936,-28669
56910,9.65166,-0.258398,0.488086,-6.09741,-86.0175,79.7113,-3.17383,10.0098,16.6016,-0.583557,-0.407623,0.547424,-0.439911,-19771,-28648,15592,-8936,-28669
56916,9.58467,-0.181836,0.531152,-7.46521,-85.957,80.9967,-3.35693,9.76562,19.4702,-0.583771,-0.406616,0.547791,-0.440063,-18491,-26344,14056,-8936,-28669
56922,9.7665,-0.30625,0.607715,-8.97583,-85.9021,82.4359,-2.56348,9.33838,22.1558,-0.583923,-0.405579,0.548218,-0.440308,-16955,-24040,12520,-8936,-28669
56928,9.69473,-0.382812,0.665137,-10.5029,-85.8472,83.9026,-1.95312,7.99561,22.9492,-0.583984,-0.40451,0.548676,-0.440674,-13115,-20968,9960,-8936,-28669
56934,9.83828,-0.693848,0.636426,-13.4418,-85.7593,86.7041,-4.21143,3.41797,21.1792,-0.583862,-0.402496,0.549683,-0.441406,-11835,-18920,8168,-8936,-28669
56940,9.97705,-0.684277,0.502441,-14.6997,-85.7318,87.8796,-5.18799,2.2583,18.6768,-0.583801,-0.40155,0.550262,-0.44162,-10555,-17384,7400,-8936,-28669
56946,9.89092,-0.77041,0.411523,-15.7709,-85.6989,88.8574,-7.38525,2.56348,15.9912,-0.583771,-0.400665,0.550842,-0.441742,-8763,-15592,6632,-8936,-28669
56952,9.75215,-0.808691,0.421094,-16.6223,-85.6659,89.6155,-7.99561,3.72314,13.0615,-0.583862,-0.39975,0.551453,-0.441711,-6971,-13544,6376,-8936,-28669
56958,9.88613,-0.746484,0.502441,-17.3035,-85.6274,90.1868,-7.93457,4.94385,10.7422,-0.584045,-0.398865,0.551971,-0.441589,-2619,-9960,4328,-8936,-28669
56964,9.88613,-0.77041,0.598145,-18.1384,-85.545,90.835,-4.08936,7.26318,6.34766,-0.584656,-0.397156,0.552826,-0.441254,-315,-8680,3048,-8936,-28669
56970,9.93877,-0.789551,0.588574,-18.2758,-85.5011,90.8844,-1.64795,8.42285,3.84521,-0.585022,-0.396393,0.553131,-0.441101,1990,-7144,1000,-8936,-28669
56976,9.97705,-0.832617,0.684277,-18.1934,-85.4572,90.7306,0.244141,9.64355,0.793457,-0.585419,-0.395752,0.553284,-0.440918,3782,-5608,232,-8936,-28669
56982,10.3455,-1.82314,0.756055,-17.1332,-85.4462,89.6869,22.0337,7.01904,-14.9536,-0.585907,-0.395142,0.553345,-0.440735,5318,-4328,-281,-8936,-28669
56988,7.96729,-0.90918,-0.698633,-16.1444,-85.4407,88.6432,11.6577,6.53076,-15.1367,-0.586304,-0.395477,0.552856,-0.440552,7878,-2024,-1305,-8936,-28669
56994,10.6518,-0.502441,0.521582,-13.8263,-85.3583,86.0229,-3.96729,16.4185,-18.9209,-0.588043,-0.394897,0.552612,-0.439026,7878,-744,-1561,-8936,-28669
57000,8.7377,-0.373242,0.641211,-12.5958,-85.2759,84.6716,0.915527,20.813,-17.4561,-0.589264,-0.394318,0.552399,-0.438141,7878,537,-2329,-8936,-28669
57006,9.94355,-0.205762,0.679492,-11.5576,-85.188,83.5181,1.77002,21.1182,-14.7705,-0.590515,-0.393768,0.552032,-0.4375,7110,1049,-2841,-8936,-28669
57012,10.0919,-0.320605,1.13408,-10.7391,-85.1221,82.5897,2.86865,17.0898,-12.207,-0.591675,-0.393158,0.551666,-0.43692,6342,1561,-3609,-8936,-28669
57018,9.32148,-0.392383,1.1915,-10.1184,-85.0781,81.8811,4.3335,10.6201,-10.0708,-0.592682,-0.392609,0.551392,-0.436371,5318,2329,-7193,-8936,-28669
57024,9.93398,-0.406738,0.712988,-9.32739,-85.0507,80.8704,0.0610352,3.54004,-6.83594,-0.594086,-0.391785,0.551392,-0.435211,5318,2585,-8985,-8936,-28669
57030,9.63252,-0.339746,0.679492,-9.06921,-85.0397,80.5078,1.2207,3.90625,-5.37109,-0.594666,-0.391327,0.551605,-0.43454,5062,2585,-11545,-8936,-28669
57036,9.6708,-0.229688,0.593359,-8.92639,-85.0122,80.2716,3.2959,5.5542,-2.86865,-0.595215,-0.390869,0.551819,-0.43396,4806,2585,-14105,-8936,-28669
57042,9.74258,-0.320605,0.708203,-8.89893,-84.9847,80.1727,6.53076,6.95801,-0.305176,-0.595734,-0.39035,0.551971,-0.433533,4806,1561,-16665,-8936,-28669
57048,9.64688,-0.358887,0.703418,-8.91541,-84.9408,80.1343,10.1318,8.42285,1.0376,-0.596161,-0.389862,0.552063,-0.433258,4038,-488,-18969,-8936,-28669
57054,9.77607,-0.564648,0.60293,-8.97583,-84.8419,80.1068,12.4512,10.9863,1.58691,-0.596863,-0.388977,0.552002,-0.433167,3526,-1000,-20249,-8936,-28669
57060,9.81436,-0.588574,0.583789,-8.9209,-84.7815,80.0024,12.4512,12.0239,0.488281,-0.59726,-0.388519,0.55191,-0.433136,3014,-2280,-21529,-8936,-28669
57066,9.74736,-0.593359,0.703418,-8.78357,-84.7266,79.8047,10.3149,11.7188,-1.34277,-0.597687,-0.388062,0.551788,-0.433105,2758,-3560,-22297,-8936,-28669
57072,9.80479,-0.607715,0.961816,-8.55286,-84.6826,79.5081,9.21631,9.82666,-3.54004,-0.598206,-0.387573,0.551666,-0.432983,3014,-4584,-23833,-8936,-28669
57078,9.86221,-0.540723,0.846973,-8.23975,-84.6497,79.1235,7.50732,7.99561,-5.5542,-0.598724,-0.387146,0.551605,-0.432709,3526,-6888,-25625,-8936,-28669
57084,9.77129,-0.44502,0.837402,-7.56409,-84.6167,78.2556,2.2583,3.60107,-7.20215,-0.599854,-0.386383,0.551636,-0.431824,3526,-7144,-26137,-8936,-28669
57090,9.79043,-0.378027,0.827832,-7.25098,-84.6112,77.8381,0.854492,2.38037,-7.14111,-0.600403,-0.385986,0.551788,-0.431183,3526,-7656,-26393,-8936,-28669
57096,9.72344,-0.339746,0.77041,-6.9928,-84.6057,77.4701,0.427246,1.83105,-6.16455,-0.600952,-0.38559,0.552002,-0.430511,3270,-8168,-25881,-8936,-28669
57102,9.69951,-0.339746,0.756055,-6.76208,-84.6002,77.135,0.366211,2.38037,-5.5542,-0.601471,-0.385162,0.552246,-0.429871,3270,-8168,-25369,-8936,-28669
57108,9.6708,-0.311035,0.727344,-6.5918,-84.5892,76.8549,0.671387,3.479,-4.3335,-0.60199,-0.384705,0.55249,-0.42923,2502,-9960,-26137,-8936,-28669
57114,9.65166,-0.210547,0.77998,-6.54236,-84.5453,76.6132,1.70898,4.82178,-0.12207,-0.602997,-0.383698,0.552917,-0.428162,1990,-10984,-28185,-8936,-28669
57120,9.60859,-0.181836,0.818262,-6.73462,-84.5233,76.7285,3.41797,5.18799,3.35693,-0.603424,-0.383148,0.553131,-0.427765,1990,-12264,-30233,-8936,-28669
57126,9.58467,-0.220117,0.708203,-7.10815,-84.4904,77.0361,6.46973,5.85938,7.20215,-0.60376,-0.382568,0.553375,-0.427521,1222,-13544,32487,-8936,-28669
57132,9.65166,-0.282324,0.655566,-7.60803,-84.4519,77.4866,8.91113,7.01904,10.3149,-0.604004,-0.381958,0.553558,-0.42749,454,-14824,29415,-8936,-28669
57138,9.74736,-0.397168,0.555078,-8.1958,-84.408,78.0414,11.2915,8.11768,12.5732,-0.604126,-0.381348,0.553741,-0.427612,-571,-16872,24551,-8936,-28669
57144,9.84307,-0.545508,0.559863,-9.30542,-84.2871,79.0851,10.7422,11.3525,11.7188,-0.604309,-0.380066,0.553986,-0.428192,-59,-17384,23015,-8936,-28669
57150,9.8,-0.545508,0.6125,-9.74487,-84.2267,79.4696,9.0332,11.7188,10.437,-0.604523,-0.379364,0.554016,-0.428467,-59,-17896,20711,-8936,-28669
57156,9.84785,-0.497656,0.813477,-10.1019,-84.1608,79.7717,7.38525,11.7798,8.97217,-0.604767,-0.378662,0.554077,-0.42865,-59,-18152,18663,-8936,-28669
57162,9.7665,-0.512012,0.851758,-10.4315,-84.1058,80.0409,6.46973,10.6201,8.17871,-0.605072,-0.37793,0.554138,-0.428772,-59,-18408,17127,-8936,-28669
57168,9.84307,-0.488086,0.952246,-10.7556,-84.0619,80.2991,5.5542,8.66699,7.75146,-0.605377,-0.377258,0.55423,-0.428833,454,-17384,13543,-8936,-28669
57174,9.79043,-0.607715,0.961816,-11.3489,-84.0015,80.755,2.86865,4.27246,6.04248,-0.605927,-0.375977,0.554565,-0.428802,1478,-16360,11751,-8936,-28669
57180,9.80957,-0.689063,1.04316,-11.5686,-83.9905,80.8923,0.915527,2.13623,4.02832,-0.606171,-0.375366,0.55484,-0.428619,2502,-15080,9703,-8936,-28669
57186,9.90527,-0.650781,1.10059,-11.6785,-83.985,80.9088,0.305176,1.2207,1.34277,-0.606415,-0.374786,0.555145,-0.428314,3270,-14312,8167,-8936,-28669
57192,9.84307,-0.645996,1.05752,-11.6455,-83.9795,80.7935,0.183105,1.09863,-1.64795,-0.60672,-0.374298,0.55545,-0.427917,3782,-13544,5863,-8936,-28669
57198,9.75693,-0.555078,1.04316,-11.5466,-83.9795,80.6012,0.915527,1.46484,-3.05176,-0.607086,-0.373871,0.555725,-0.42746,4806,-13544,743,-8936,-28669
57204,9.71865,-0.416309,0.957031,-11.3434,-83.9685,80.2386,2.01416,1.64795,-2.56348,-0.607819,-0.373138,0.556152,-0.426483,5574,-13544,-1306,-8936,-28669
57210,9.72822,-0.47373,0.91875,-11.2885,-83.9685,80.1123,2.19727,1.46484,-1.83105,-0.608185,-0.372772,0.556335,-0.426056,6086,-12776,-3354,-8936,-28669
57216,9.74258,-0.512012,0.976172,-11.2555,-83.963,80.0024,2.0752,0.915527,-1.46484,-0.60849,-0.372406,0.556549,-0.425629,6854,-12264,-4634,-8936,-28669
57222,9.73301,-0.531152,0.980957,-11.1841,-83.9685,79.8541,1.89209,0.366211,-2.44141,-0.608795,-0.37204,0.556763,-0.425232,7622,-11752,-4634,-8936,-28669
57228,9.77607,-0.540723,0.985742,-11.1072,-83.974,79.6948,0.732422,-0.427246,-2.86865,-0.609436,-0.371338,0.557251,-0.424286,8134,-11240,-4890,-8936,-28669
57234,9.77129,-0.46416,1.0001,-10.882,-83.996,79.2883,-0.12207,-2.38037,-4.08936,-0.609772,-0.371033,0.557526,-0.423706,8902,-11496,-6170,-8936,-28669
57240,9.71387,-0.46416,1.02881,-10.7501,-84.0234,79.0741,-0.305176,-3.84521,-4.76074,-0.610077,-0.370728,0.557831,-0.423126,9158,-11240,-6938,-8936,-28669
57246,9.70908,-0.430664,1.02402,-10.6622,-84.0509,78.8983,-0.12207,-5.37109,-4.02832,-0.610382,-0.370483,0.558167,-0.422516,10182,-11240,-7450,-8936,-28669
57252,9.70908,-0.373242,1.01924,-10.6238,-84.0894,78.7775,-0.183105,-7.32422,-3.2959,-0.610596,-0.370239,0.558563,-0.421906,11462,-11496,-7450,-8936,-28669
57258,9.71387,-0.378027,1.02881,-10.6567,-84.1388,78.7335,-0.305176,-9.39941,-2.19727,-0.61084,-0.369812,0.559479,-0.420654,13510,-13032,-6682,-8936,-28669
57264,9.75693,-0.44502,0.942676,-10.8325,-84.2651,78.739,-1.0376,-13.4888,-1.70898,-0.61087,-0.369659,0.560028,-0.420013,13766,-14056,-7194,-8936,-28669
57270,9.79521,-0.47373,0.904395,-10.9424,-84.3365,78.772,-1.58691,-14.8926,-1.70898,-0.61087,-0.369507,0.560669,-0.419342,13510,-14568,-7962,-8936,-28669
57276,9.71865,-0.406738,0.870898,-11.0852,-84.4135,78.8269,-2.2583,-16.2354,-1.58691,-0.610809,-0.369385,0.56131,-0.41864,12742,-14056,-7450,-8936,-28669
57282,9.70908,-0.358887,0.794336,-11.261,-84.4958,78.9148,-3.23486,-16.8457,-1.09863,-0.610748,-0.369263,0.562012,-0.417908,11974,-13544,-6170,-8936,-28669
57288,9.68516,-0.368457,0.784766,-11.5192,-84.5837,79.0796,-4.27246,-17.334,0.183105,-0.610535,-0.368958,0.563538,-0.416443,10182,-13032,-3098,-8936,-28669
57294,9.68037,-0.358887,0.775195,-12.3047,-84.7485,79.6893,-4.08936,-17.8833,3.41797,-0.610382,-0.368744,0.564362,-0.415741,9670,-13032,-1306,-8936,-28669
57300,9.71387,-0.339746,0.746484,-12.8156,-84.8309,80.1233,-3.66211,-18.1885,4.39453,-0.610168,-0.36853,0.565186,-0.4151,8902,-12520,743,-8936,-28669
57306,9.74736,-0.387598,0.698633,-13.4088,-84.9078,80.6396,-2.99072,-17.8223,5.7373,-0.609924,-0.368317,0.56604,-0.41452,8646,-12008,2791,-8936,-28669
57312,9.77607,-0.459375,0.674707,-14.0405,-84.9847,81.2,-2.44141,-17.2119,6.28662,-0.60965,-0.368073,0.566864,-0.414001,8134,-11496,3559,-8936,-28669
57318,9.83828,-0.569434,0.583789,-14.6338,-85.0507,81.7218,-2.13623,-16.1133,5.61523,-0.6091,-0.367615,0.56842,-0.413086,7110,-10984,5607,-8936,-28669
57324,9.87656,-0.665137,0.540723,-15.5292,-85.177,82.4744,-2.31934,-13.1836,2.2583,-0.608917,-0.367401,0.569122,-0.412598,6342,-10984,5607,-8936,-28669
57330,9.90049,-0.669922,0.588574,-15.7764,-85.2319,82.6501,-2.56348,-12.3291,-0.12207,-0.608795,-0.367188,0.569763,-0.412079,6086,-10984,6631,-8936,-28669
57336,9.87178,-0.669922,0.583789,-15.8752,-85.2869,82.6611,-3.35693,-11.4746,-2.74658,-0.608765,-0.366974,0.570343,-0.411499,5830,-10472,9191,-8936,-28669
57342,9.88135,-0.636426,0.559863,-15.8752,-85.3473,82.5732,-4.15039,-10.9253,-4.3335,-0.608795,-0.366821,0.570892,-0.410828,5318,-10216,12007,-8936,-28669
57348,9.85264,-0.598145,0.569434,-15.7489,-85.4022,82.3535,-4.76074,-10.498,-6.34766,-0.60907,-0.366486,0.571899,-0.409302,4806,-9704,18151,-8936,-28669
57354,9.81914,-0.526367,0.540723,-15.2106,-85.5066,81.6229,-4.63867,-8.8501,-8.91113,-0.609283,-0.366333,0.572357,-0.408478,4294,-9960,20199,-8936,-28669
57360,9.80479,-0.521582,0.6125,-14.848,-85.556,81.1615,-4.76074,-8.42285,-9.52148,-0.609528,-0.36618,0.572784,-0.407623,4038,-9960,22503,-8936,-28669
57366,9.77607,-0.507227,0.593359,-14.425,-85.6055,80.6396,-4.27246,-7.87354,-10.1318,-0.609833,-0.366058,0.573181,-0.406769,4038,-9960,23783,-8936,-28669
57372,9.78086,-0.435449,0.569434,-13.9966,-85.6549,80.1123,-3.72314,-7.62939,-10.0708,-0.610138,-0.365936,0.573547,-0.405884,4038,-9704,24807,-8936,-28669
57378,9.71387,-0.334961,0.593359,-13.5516,-85.6989,79.5795,-3.41797,-7.44629,-10.0098,-0.610718,-0.365692,0.57428,-0.404205,4038,-10216,25831,-8936,-28669
57384,9.70908,-0.31582,0.588574,-12.8815,-85.7812,78.728,-2.50244,-7.08008,-7.69043,-0.610992,-0.36554,0.574646,-0.403412,3782,-10728,26599,-8936,-28669
57390,9.7043,-0.277539,0.564648,-12.6453,-85.8197,78.4094,-1.83105,-6.89697,-6.22559,-0.611237,-0.365387,0.574982,-0.402679,3014,-11752,27623,-8936,-28669
57396,9.71865,-0.31582,0.555078,-12.4915,-85.8582,78.1787,-1.09863,-6.71387,-4.88281,-0.61145,-0.365204,0.575348,-0.401978,2246,-13288,29159,-8936,-28669
57402,9.68037,-0.263184,0.535937,-12.4255,-85.8911,78.0359,-0.427246,-6.16455,-3.35693,-0.611633,-0.365021,0.575714,-0.401367,1478,-14312,30439,-8936,-28669
57408,9.70908,-0.263184,0.516797,-12.4695,-85.9186,78.0084,0,-5.7373,-1.58691,-0.611877,-0.364594,0.576447,-0.40033,454,-16104,-31001,-8936,-28669
57414,9.74258,-0.31582,0.531152,-12.821,-85.957,78.2336,1.0376,-4.3335,1.2207,-0.612,-0.364288,0.576782,-0.399933,-315,-16360,-28953,-8928,-28670
57420,9.77607,-0.378027,0.483301,-13.0957,-85.9735,78.4424,1.09863,-3.78418,2.2583,-0.612061,-0.364014,0.577148,-0.399567,-1083,-17128,-26393,-8928,-28670
57426,9.80957,-0.430664,0.449805,-13.3594,-85.979,78.6401,0.976562,-2.80762,2.2583,-0.612122,-0.363678,0.577484,-0.399261,-1595,-18152,-24089,-8928,-28670
57432,9.80957,-0.449805,0.440234,-13.5736,-85.9845,78.7939,0.915527,-1.83105,1.83105,-0.612244,-0.363312,0.57782,-0.398987,-2363,-19688,-23321,-8928,-28670
57438,9.79521,-0.440234,0.516797,-13.7329,-85.9845,78.8873,0.488281,-0.549316,1.28174,-0.612549,-0.362579,0.578369,-0.398376,-3387,-21480,-23065,-8928,-28670
57444,9.76172,-0.363672,0.574219,-14.0021,-85.9845,79.0247,0.732422,-0.488281,0.976562,-0.612762,-0.362183,0.578613,-0.398041,-4411,-21480,-24089,-8928,-28670
57450,9.74736,-0.378027,0.62207,-14.2108,-85.99,79.1675,0.671387,-1.2207,1.83105,-0.612946,-0.361816,0.578857,-0.397736,-5435,-21224,-23577,-8928,-28670
57456,9.77129,-0.358887,0.617285,-14.48,-85.9955,79.3707,0.610352,-2.31934,2.44141,-0.613098,-0.36145,0.579163,-0.39743,-6203,-21224,-22809,-8928,-28670
57462,9.75693,-0.411523,0.598145,-14.8206,-86.0065,79.6509,0.610352,-3.2959,3.23486,-0.61319,-0.361053,0.579468,-0.397156,-6715,-20200,-21785,-8928,-28670
57468,9.81436,-0.478516,0.502441,-15.1337,-86.0175,79.9036,0.732422,-3.60107,2.74658,-0.613312,-0.360352,0.58017,-0.396576,-6715,-19176,-18969,-8928,-28670
57474,9.83828,-0.492871,0.521582,-15.639,-86.0449,80.2771,0.366211,-3.23486,1.40381,-0.613403,-0.360016,0.580505,-0.396271,-5947,-18920,-16921,-8928,-28670
57480,9.82871,-0.502441,0.483301,-15.7764,-86.0559,80.3485,0.305176,-3.2959,0.183105,-0.613495,-0.35968,0.580841,-0.395905,-5947,-19176,-14617,-8928,-28670
57486,9.78564,-0.497656,0.483301,-15.8588,-86.0724,80.3705,0.366211,-2.86865,-0.488281,-0.613617,-0.359375,0.581146,-0.395538,-5691,-19176,-12313,-8928,-28670
57492,9.82393,-0.492871,0.47373,-15.8698,-86.0834,80.3101,0.305176,-2.68555,-1.52588,-0.61377,-0.3591,0.581451,-0.395142,-5947,-18920,-9241,-8928,-28670
57498,9.79521,-0.425879,0.502441,-15.8533,-86.0999,80.2222,0.12207,-2.31934,-1.83105,-0.614136,-0.358521,0.58197,-0.394287,-6459,-18152,-5401,-8928,-28670
57504,9.77129,-0.425879,0.483301,-15.7379,-86.1163,79.9695,0.244141,-1.40381,-2.0752,-0.614349,-0.358246,0.582214,-0.39386,-6203,-17896,-4377,-8928,-28670
57510,9.76172,-0.425879,0.47373,-15.6665,-86.1273,79.8267,0.305176,-1.09863,-2.2583,-0.614594,-0.357941,0.582458,-0.393433,-6203,-17384,-4121,-8928,-28670
57516,9.7665,-0.401953,0.47373,-15.6116,-86.1273,79.7003,0.488281,-0.488281,-1.89209,-0.614807,-0.357635,0.582703,-0.393005,-5691,-17128,-3865,-8928,-28670
57522,9.75215,-0.416309,0.488086,-15.5402,-86.1328,79.5575,0.366211,-0.305176,-2.01416,-0.615051,-0.3573,0.582916,-0.392578,-5947,-16872,-4633,-8928,-28670
57528,9.79043,-0.392383,0.540723,-15.4413,-86.1328,79.3872,0.427246,-0.549316,-2.13623,-0.61557,-0.356659,0.583344,-0.391754,-6971,-15080,-6425,-8936,-28669
57534,9.79521,-0.421094,0.545508,-15.2765,-86.1493,79.0796,0.244141,-1.0376,-2.50244,-0.615814,-0.356354,0.583557,-0.391327,-8251,-14312,-6681,-8936,-28669
57540,9.8335,-0.478516,0.535937,-15.1337,-86.1603,78.8654,0,-1.46484,-3.35693,-0.616058,-0.356049,0.583771,-0.390869,-9019,-14056,-5657,-8936,-28669
57546,9.81914,-0.449805,0.531152,-14.9744,-86.1713,78.6346,-0.12207,-1.95312,-3.72314,-0.616302,-0.355743,0.584015,-0.390381,-10043,-14312,-5657,-8936,-28669
57552,9.80479,-0.440234,0.531152,-14.826,-86.1877,78.4094,-0.0610352,-2.50244,-3.72314,-0.616577,-0.355469,0.584259,-0.389893,-10043,-14568,-6681,-8936,-28669
57558,9.76172,-0.368457,0.540723,-14.6942,-86.2042,78.2007,0,-3.05176,-3.78418,-0.617035,-0.35495,0.584778,-0.388855,-9531,-15848,-8985,-8936,-28669
57564,9.77129,-0.363672,0.540723,-14.4415,-86.2427,77.7997,0,-3.54004,-3.35693,-0.617249,-0.354706,0.585052,-0.388336,-9019,-16616,-10265,-8936,-28669
57570,9.7665,-0.358887,0.459375,-14.3481,-86.2646,77.6404,0,-3.35693,-3.05176,-0.617432,-0.354431,0.585327,-0.387817,-9019,-17384,-10265,-8936,-28669
57576,9.76172,-0.339746,0.459375,-14.2657,-86.2811,77.4756,0,-2.80762,-2.86865,-0.617645,-0.354187,0.585632,-0.387329,-9275,-17896,-8985,-8936,-28669
57582,9.7665,-0.358887,0.430664,-14.1998,-86.2921,77.3438,0.244141,-2.0752,-2.31934,-0.617828,-0.353912,0.585907,-0.386841,-9787,-17896,-8729,-8936,-28669
57588,9.74736,-0.354102,0.397168,-14.1339,-86.2976,77.2064,0.366211,-0.0610352,-2.01416,-0.618256,-0.353302,0.586395,-0.385956,-11067,-18152,-8217,-8936,-28669
57594,9.75693,-0.334961,0.421094,-14.0076,-86.2976,76.9373,0.549316,0.915527,-1.34277,-0.61853,-0.352966,0.586609,-0.385529,-11067,-18152,-9241,-8936,-28669
57600,9.77129,-0.358887,0.425879,-13.9801,-86.2921,76.8384,0.854492,1.58691,-0.915527,-0.618805,-0.3526,0.586792,-0.385132,-11067,-17896,-10265,-8936,-28669
57606,9.77129,-0.382812,0.468945,-13.9526,-86.2811,76.7395,1.0376,2.0752,-0.793457,-0.61908,-0.352203,0.586975,-0.384796,-11067,-17640,-11545,-8936,-28669
57612,9.78086,-0.368457,0.46416,-13.9252,-86.2701,76.6461,1.09863,2.44141,-0.671387,-0.619354,-0.351837,0.587128,-0.38443,-11067,-17640,-12569,-8936,-28669
57618,9.81436,-0.382812,0.502441,-13.8922,-86.2592,76.5417,1.34277,2.50244,-0.732422,-0.619934,-0.351013,0.587433,-0.383759,-12347,-18152,-12825,-8936,-28669
57624,9.78086,-0.378027,0.569434,-13.8208,-86.2372,76.3385,1.52588,2.44141,-0.732422,-0.620209,-0.350616,0.587585,-0.383423,-12859,-18408,-11545,-8936,-28669
57630,9.79521,-0.378027,0.545508,-13.7659,-86.2262,76.2177,1.52588,1.83105,-1.15967,-0.620483,-0.35025,0.587738,-0.383118,-12603,-18664,-10521,-8936,-28669
57636,9.78564,-0.425879,0.540723,-13.7439,-86.2262,76.1188,1.34277,1.15967,-0.976562,-0.620758,-0.349884,0.587891,-0.382751,-12347,-18408,-10265,-8936,-28669
57642,9.82393,-0.430664,0.531152,-13.6725,-86.2262,75.9814,0.732422,0.183105,-1.83105,-0.621033,-0.349518,0.588043,-0.382416,-12091,-18408,-9753,-8936,-28669
57648,9.84307,-0.430664,0.526367,-13.5626,-86.2262,75.7947,0.12207,-0.488281,-3.60107,-0.621552,-0.348846,0.58847,-0.381561,-11835,-19688,-11801,-8936,-28669
57654,9.8335,-0.425879,0.516797,-13.1671,-86.2427,75.2454,0,-0.854492,-4.08936,-0.621826,-0.348511,0.588684,-0.381042,-12091,-20456,-12313,-8936,-28669
57660,9.79043,-0.363672,0.483301,-12.9199,-86.2537,74.9213,-0.183105,-0.976562,-4.57764,-0.622101,-0.348206,0.588898,-0.380524,-12347,-21480,-12313,-8936,-28669
57666,9.77607,-0.330176,0.468945,-12.7002,-86.2646,74.6191,-0.366211,-1.09863,-4.27246,-0.622406,-0.347931,0.589111,-0.379974,-12859,-21992,-12313,-8936,-28669
57672,9.72344,-0.287109,0.47373,-12.5079,-86.2701,74.35,-0.244141,-0.610352,-3.72314,-0.622681,-0.347626,0.589355,-0.379425,-14139,-24296,-12057,-8936,-28669
57678,9.75693,-0.311035,0.521582,-12.3816,-86.2756,74.1412,0.183105,-0.549316,-2.19727,-0.62323,-0.346954,0.589783,-0.378448,-14907,-25320,-12057,-8936,-28669
57684,9.77129,-0.325391,0.526367,-12.2443,-86.2866,73.8556,0,-1.15967,-1.95312,-0.623474,-0.346619,0.590027,-0.377991,-14907,-26600,-12313,-8936,-28669
57690,9.78564,-0.320605,0.526367,-12.2003,-86.2976,73.7347,-0.0610352,-1.46484,-1.89209,-0.623718,-0.346283,0.590271,-0.377533,-14907,-27880,-12057,-8936,-28669
57696,9.78086,-0.339746,0.497656,-12.1509,-86.3031,73.6139,-0.244141,-1.34277,-1.89209,-0.623932,-0.345947,0.590515,-0.377075,-15163,-28904,-11545,-8936,-28669
57702,9.77607,-0.30625,0.502441,-12.1234,-86.3141,73.515,-0.183105,-1.34277,-1.58691,-0.624146,-0.345612,0.590759,-0.376617,-15419,-29672,-12057,-8936,-28669
57708,9.74258,-0.272754,0.535937,-12.2498,-86.3306,73.4985,-0.12207,-1.77002,-0.12207,-0.624573,-0.34494,0.591278,-0.375763,-14907,-29672,-12569,-8936,-28669
57714,9.71387,-0.220117,0.521582,-12.4255,-86.3416,73.6029,-0.183105,-2.31934,0.854492,-0.624725,-0.344574,0.591553,-0.375366,-14907,-29928,-12569,-8936,-28669
57720,9.71865,-0.258398,0.545508,-12.7002,-86.3525,73.8116,-0.0610352,-2.68555,2.13623,-0.624847,-0.344238,0.591858,-0.375031,-14907,-30184,-12313,-8936,-28669
57726,9.75693,-0.291895,0.545508,-13.0518,-86.3635,74.1028,0,-3.66211,2.92969,-0.624939,-0.343872,0.592194,-0.374695,-15419,-30440,-11801,-8936,-28669
57732,9.77607,-0.330176,0.507227,-13.4418,-86.3855,74.4324,-0.244141,-4.5166,3.17383,-0.625,-0.343506,0.592529,-0.37439,-16443,-30184,-10777,-8936,-28669
57738,9.81436,-0.373242,0.47373,-14.2712,-86.424,75.141,-0.366211,-4.88281,3.479,-0.625,-0.342834,0.593292,-0.37381,-16699,-30696,-9753,-8936,-28669
57744,9.79521,-0.387598,0.411523,-14.6283,-86.4404,75.4376,-0.244141,-4.45557,2.68555,-0.625,-0.342468,0.593658,-0.373505,-16443,-30696,-8985,-8936,-28669
57750,9.8,-0.378027,0.401953,-14.9469,-86.4569,75.7013,-0.366211,-3.66211,2.31934,-0.625031,-0.342163,0.594025,-0.373199,-16443,-30952,-8729,-8936,-28669
57756,9.81436,-0.411523,0.401953,-15.2325,-86.4679,75.9265,0,-2.86865,2.0752,-0.625092,-0.341827,0.59436,-0.372894,-16187,-30952,-8985,-8936,-28669
57762,9.8,-0.416309,0.397168,-15.4633,-86.4734,76.0968,0,-2.13623,1.58691,-0.625153,-0.341492,0.594666,-0.372589,-15163,-32232,-10265,-8936,-28669
57768,9.8,-0.378027,0.392383,-15.7654,-86.4844,76.2781,0.244141,-0.671387,0.671387,-0.625366,-0.34082,0.595184,-0.372009,-14395,-32488,-9497,-8936,-28669
57774,9.8,-0.392383,0.401953,-15.8588,-86.4844,76.311,0.183105,0.0610352,0.427246,-0.625519,-0.340485,0.595398,-0.371704,-14139,-32232,-8473,-8936,-28669
57780,9.79521,-0.373242,0.425879,-15.9192,-86.4789,76.311,0.244141,0.549316,0.12207,-0.625702,-0.340149,0.595612,-0.371399,-14395,-31464,-7705,-8936,-28669
57786,9.8,-0.363672,0.425879,-15.9576,-86.4734,76.2836,0.366211,1.34277,0.0610352,-0.625885,-0.339783,0.595795,-0.371063,-14907,-30184,-7193,-8936,-28669
57792,9.78564,-0.354102,0.425879,-15.9906,-86.4624,76.2561,0.366211,1.77002,0.12207,-0.626099,-0.339447,0.595978,-0.370789,-17979,-27880,-4889,-8936,-28669
57798,9.78086,-0.378027,0.502441,-15.9906,-86.4514,76.1298,0.0610352,1.70898,-0.244141,-0.626556,-0.338715,0.596283,-0.370178,-19003,-27368,-2585,-8936,-28669
57804,9.77607,-0.339746,0.512012,-16.0016,-86.4459,76.0748,0,1.2207,-0.366211,-0.626801,-0.338348,0.596436,-0.369873,-19771,-27368,232,-8936,-28669
57810,9.75215,-0.30625,0.535937,-16.073,-86.4404,76.0858,0.0610352,0.671387,0.305176,-0.627014,-0.337982,0.596588,-0.369537,-19515,-27624,3048,-8936,-28669
57816,9.74258,-0.31582,0.545508,-16.2323,-86.4404,76.1847,0.0610352,-0.244141,1.2207,-0.627228,-0.337646,0.596771,-0.369232,-19515,-27624,5096,-8936,-28669
57822,9.74258,-0.29668,0.497656,-16.4355,-86.4404,76.3385,0.0610352,-0.488281,1.77002,-0.62735,-0.33728,0.596985,-0.368958,-18747,-27880,8168,-8936,-28669
57828,9.77607,-0.334961,0.45459,-17.0178,-86.4404,76.7999,0.0610352,-0.793457,2.99072,-0.627594,-0.336548,0.597473,-0.368469,-18235,-27624,7656,-8936,-28669
57834,9.79521,-0.363672,0.459375,-17.298,-86.4404,77.0306,0.183105,-0.549316,2.80762,-0.627686,-0.336182,0.597717,-0.368225,-17723,-27112,7656,-8936,-28669
57840,9.80479,-0.430664,0.488086,-17.5616,-86.4404,77.2339,0.183105,-0.671387,2.44141,-0.627808,-0.335815,0.597931,-0.368011,-16699,-26600,7912,-8936,-28669
57846,9.83828,-0.425879,0.478516,-17.7979,-86.4404,77.4207,0.366211,-0.854492,2.13623,-0.627899,-0.33548,0.598175,-0.367798,-15931,-25320,7656,-8936,-28669
57852,9.83828,-0.440234,0.478516,-17.9626,-86.4404,77.5305,0.244141,-0.854492,1.15967,-0.627991,-0.335144,0.598419,-0.367554,-14651,-24808,7400,-8936,-28669
57858,9.78564,-0.397168,0.459375,-18.2153,-86.4514,77.6678,-0.0610352,-1.28174,0.427246,-0.628235,-0.334503,0.598846,-0.366974,-14139,-25320,6376,-8936,-28669
57864,9.78564,-0.358887,0.440234,-18.3307,-86.4569,77.7338,0,-0.793457,0.549316,-0.628357,-0.334198,0.59906,-0.366669,-14907,-26344,5352,-8936,-28669
57870,9.79521,-0.382812,0.47373,-18.4351,-86.4569,77.7777,0.0610352,-0.671387,0.366211,-0.62851,-0.333893,0.599274,-0.366394,-14907,-27368,4584,-8936,-28669
57876,9.81436,-0.392383,0.468945,-18.5065,-86.4624,77.7942,0.0610352,-0.488281,0,-0.628632,-0.333588,0.599487,-0.366089,-14651,-27624,4328,-8936,-28669
57882,9.82871,-0.401953,0.478516,-18.5449,-86.4624,77.7722,0.305176,-0.366211,-0.366211,-0.628784,-0.333282,0.59967,-0.365784,-13883,-27368,2792,-8936,-28669
57888,9.81914,-0.440234,0.483301,-18.512,-86.4734,77.6294,0.12207,-1.09863,-1.64795,-0.62912,-0.332733,0.600037,-0.365173,-12859,-27112,2280,-8936,-28669
57894,9.78564,-0.387598,0.468945,-18.468,-86.4844,77.525,-0.366211,-1.52588,-1.89209,-0.629272,-0.332489,0.60022,-0.364807,-11835,-26600,2280,-8936,-28669
57900,9.77607,-0.373242,0.46416,-18.4076,-86.4954,77.4042,-0.427246,-1.64795,-2.13623,-0.629425,-0.332214,0.600433,-0.36441,-10811,-26088,3048,-8936,-28669
57906,9.79521,-0.373242,0.425879,-18.3582,-86.5063,77.2943,-0.12207,-1.83105,-2.01416,-0.629608,-0.33197,0.600647,-0.364014,-10043,-26088,4840,-8936,-28669
57912,9.79043,-0.344531,0.44502,-18.2977,-86.5173,77.179,-0.0610352,-1.0376,-1.89209,-0.629761,-0.331726,0.600861,-0.363617,-10043,-25832,7400,-8936,-28669
57918,9.78564,-0.363672,0.435449,-18.1329,-86.5283,76.8933,0,-0.549316,-1.83105,-0.630096,-0.331207,0.601196,-0.362885,-10299,-26088,8168,-8936,-28669
57924,9.79521,-0.354102,0.425879,-18.0615,-86.5338,76.7615,-0.0610352,-0.488281,-1.83105,-0.63028,-0.330963,0.601379,-0.362518,-10555,-26600,8168,-8936,-28669
57930,9.77607,-0.354102,0.44502,-17.9791,-86.5393,76.6241,-0.0610352,-0.366211,-1.95312,-0.630493,-0.330688,0.601562,-0.362152,-11323,-27112,8936,-8936,-28669
57936,9.78564,-0.334961,0.449805,-17.9022,-86.5448,76.4813,0,-0.244141,-1.89209,-0.630676,-0.330414,0.601746,-0.361755,-12091,-27624,9960,-8936,-28669
57942,9.79043,-0.373242,0.416309,-17.8253,-86.5448,76.344,-0.0610352,-0.305176,-1.89209,-0.630859,-0.330139,0.601898,-0.36142,-13883,-27368,9448,-8936,-28669
57948,9.76172,-0.334961,0.449805,-17.7759,-86.5503,76.1792,0.0610352,-0.244141,-1.0376,-0.631256,-0.329559,0.602234,-0.360687,-14139,-26600,8168,-8936,-28669
57954,9.77129,-0.334961,0.497656,-17.8088,-86.5558,76.1572,0,-0.244141,-0.427246,-0.631439,-0.329254,0.602417,-0.360352,-14395,-26088,7912,-8936,-28669
57960,9.7665,-0.325391,0.488086,-17.8802,-86.5558,76.1682,0.183105,-0.427246,0,-0.631592,-0.328949,0.6026,-0.360016,-14651,-25576,6632,-8936,-28669
57966,9.76172,-0.330176,0.478516,-17.9846,-86.5613,76.2177,-0.183105,-1.2207,0.12207,-0.631744,-0.328644,0.602783,-0.359711,-14907,-26088,5608,-8936,-28669
57972,9.75215,-0.339746,0.526367,-18.1165,-86.5668,76.2946,-0.244141,-1.58691,0.427246,-0.631989,-0.328064,0.603241,-0.3591,-16187,-26600,1512,-8936,-28669
57978,9.81436,-0.363672,0.478516,-18.4351,-86.5887,76.5033,-0.366211,-2.56348,0.427246,-0.63208,-0.327759,0.603485,-0.358795,-16443,-27112,-793,-8936,-28669
57984,9.80479,-0.373242,0.440234,-18.5779,-86.6052,76.5857,-0.549316,-2.92969,0,-0.632172,-0.327484,0.603729,-0.35849,-16443,-27368,-2585,-8936,-28669
57990,9.8,-0.358887,0.411523,-18.7097,-86.6162,76.6626,-0.488281,-2.68555,0,-0.632233,-0.327209,0.604004,-0.358154,-16699,-27368,-3097,-8936,-28669
57996,9.79043,-0.373242,0.401953,-18.8251,-86.6272,76.7175,-0.427246,-2.44141,-0.183105,-0.632324,-0.326935,0.604248,-0.357819,-16699,-27112,-2585,-8936,-28669
58002,9.80957,-0.354102,0.411523,-18.924,-86.6382,76.7615,-0.488281,-2.2583,-0.305176,-0.632538,-0.326416,0.604706,-0.357147,-14907,-26856,-281,-8936,-28669
58008,9.78564,-0.378027,0.425879,-19.0668,-86.6547,76.7944,-0.244141,-1.58691,-0.305176,-0.63266,-0.326141,0.604919,-0.356812,-14395,-26856,-281,-8936,-28669
58014,9.80957,-0.397168,0.406738,-19.1162,-86.6602,76.7944,-0.427246,-1.46484,-0.610352,-0.632782,-0.325867,0.605133,-0.356506,-13627,-26856,488,-8936,-28669
58020,9.8,-0.358887,0.378027,-19.1602,-86.6711,76.778,-0.244141,-1.28174,-0.671387,-0.632904,-0.325592,0.605347,-0.356171,-13115,-26600,488,-8936,-28669
58026,9.81914,-0.363672,0.344531,-19.1711,-86.6711,76.734,-0.366211,-0.305176,-0.732422,-0.633026,-0.325317,0.60553,-0.355835,-13115,-25832,1512,-8936,-28669
58032,9.80479,-0.358887,0.354102,-19.1492,-86.6711,76.6516,-0.244141,0.671387,-0.854492,-0.633392,-0.324738,0.605865,-0.355194,-14395,-24296,3048,-8936,-28669
58038,9.80957,-0.368457,0.387598,-18.9459,-86.6547,76.333,0.0610352,2.56348,-1.40381,-0.633606,-0.324402,0.605988,-0.354889,-15163,-24040,4072,-8936,-28669
58044,9.81436,-0.368457,0.392383,-18.7921,-86.6437,76.1243,0.183105,3.17383,-1.58691,-0.633881,-0.324097,0.606079,-0.354584,-15675,-24296,4840,-8936,-28669
58050,9.77607,-0.382812,0.406738,-18.6108,-86.6272,75.8771,0.0610352,3.54004,-1.89209,-0.634155,-0.323761,0.60614,-0.354248,-15931,-24552,4328,-8936,-28669
58056,9.8,-0.401953,0.397168,-18.3856,-86.6107,75.5969,0.427246,4.02832,-2.19727,-0.63443,-0.323425,0.606201,-0.353943,-16443,-24808,2536,-8936,-28669
58062,9.79521,-0.382812,0.44502,-18.111,-86.5942,75.2563,0.610352,4.39453,-2.80762,-0.635071,-0.322754,0.606293,-0.353271,-17467,-25832,-1561,-8936,-28669
58068,9.79521,-0.387598,0.483301,-17.4738,-86.5668,74.4928,0.366211,4.21143,-3.66211,-0.635406,-0.322418,0.606323,-0.352936,-17979,-26344,-3865,-8936,-28669
58074,9.78086,-0.363672,0.488086,-17.1057,-86.5558,74.0588,0.244141,4.02832,-4.21143,-0.635773,-0.322113,0.606354,-0.352539,-18491,-26600,-4889,-8936,-28669
58080,9.76172,-0.31582,0.507227,-16.7542,-86.5448,73.6414,0.12207,3.54004,-4.21143,-0.636108,-0.321777,0.606384,-0.352142,-18491,-26600,-5657,-8936,-28669
58086,9.78086,-0.301465,0.488086,-16.452,-86.5338,73.2733,0,3.05176,-3.72314,-0.636444,-0.321472,0.606415,-0.351715,-18491,-26344,-6681,-8936,-28669
58092,9.75215,-0.277539,0.492871,-16.1609,-86.5283,72.9108,0,2.68555,-3.78418,-0.637085,-0.320862,0.606567,-0.350891,-19259,-26856,-7193,-8936,-28669
58098,9.74736,-0.248828,0.497656,-15.7434,-86.5118,72.3669,-0.0610352,2.19727,-2.38037,-0.63739,-0.320557,0.606659,-0.350494,-19771,-26856,-6681,-8936,-28669
58104,9.73779,-0.258398,0.478516,-15.6281,-86.5063,72.1912,0,1.95312,-1.70898,-0.637634,-0.320221,0.60675,-0.350128,-20539,-26600,-5913,-8936,-28669
58110,9.73779,-0.258398,0.497656,-15.5566,-86.5009,72.0538,0,1.89209,-1.2207,-0.637909,-0.319885,0.606873,-0.349762,-21051,-26344,-4633,-8936,-28669
58116,9.7665,-0.272754,0.483301,-15.5676,-86.4899,72.0044,0,1.83105,-0.12207,-0.638153,-0.31955,0.606995,-0.349426,-22075,-25320,-4377,-8936,-28669
58122,9.74736,-0.267969,0.478516,-15.5896,-86.4844,71.9659,0.183105,1.89209,0.0610352,-0.63858,-0.318848,0.607269,-0.348846,-22587,-24808,-3865,-8936,-28669
58128,9.77129,-0.29668,0.47373,-15.7379,-86.4679,71.9989,0.183105,1.77002,0.854492,-0.638763,-0.318481,0.607391,-0.348572,-22587,-25064,-4633,-8936,-28669
58134,9.77607,-0.29668,0.478516,-15.8313,-86.4569,72.0319,0.0610352,1.40381,0.854492,-0.638947,-0.318115,0.607544,-0.348297,-22075,-25832,-3609,-8936,-28669
58140,9.8,-0.31582,0.502441,-15.9302,-86.4514,72.0758,-0.0610352,1.28174,0.915527,-0.63913,-0.317749,0.607697,-0.348022,-21819,-26856,-3865,-8936,-28669
58146,9.78086,-0.30625,0.526367,-16.0291,-86.4459,72.1143,0,0.976562,0.793457,-0.639313,-0.317383,0.607849,-0.347778,-21819,-28136,-4121,-8936,-28669
58152,9.77129,-0.301465,0.526367,-16.1554,-86.4459,72.1857,-0.12207,0.427246,1.0376,-0.639618,-0.316681,0.608185,-0.347229,-22331,-30184,-4121,-8936,-28669
58158,9.77129,-0.234473,0.478516,-16.5619,-86.4404,72.4823,-0.732422,-0.610352,2.13623,-0.639771,-0.316345,0.608368,-0.346985,-23099,-30440,-3353,-8936,-28669
58164,9.65166,-0.31582,0.531152,-16.864,-86.4404,72.7295,-0.976562,-0.610352,2.99072,-0.639862,-0.315979,0.608582,-0.346741,-23867,-30952,-1817,-8936,-28669
58170,9.75215,-0.287109,0.492871,-17.1936,-86.4404,73.0096,-0.12207,-0.793457,3.41797,-0.639954,-0.315613,0.608826,-0.346527,-24891,-31208,-1561,-8936,-28669
58176,9.80957,-0.31582,0.497656,-17.5507,-86.4404,73.3173,-0.244141,-0.854492,3.72314,-0.640015,-0.315247,0.609039,-0.346344,-25659,-31208,-2585,-8936,-28669
58182,9.80479,-0.339746,0.521582,-17.9407,-86.4404,73.6578,-0.488281,-1.34277,4.02832,-0.640106,-0.314545,0.609528,-0.345978,-27195,-30440,-4633,-8936,-28669
58188,9.8,-0.330176,0.459375,-18.6877,-86.4459,74.317,-0.488281,-1.34277,4.08936,-0.640137,-0.314209,0.609741,-0.345825,-27707,-30184,-3865,-8936,-28669
58194,9.77607,-0.334961,0.46416,-19.0887,-86.4404,74.6741,-0.0610352,-0.976562,4.3335,-0.640167,-0.313843,0.609985,-0.345642,-27195,-29928,-4121,-8936,-28669
58200,9.79043,-0.339746,0.47373,-19.4952,-86.4404,75.0366,0.0610352,-0.732422,4.5166,-0.640198,-0.313507,0.610199,-0.34552,-26683,-29416,-3353,-8936,-28669
58206,9.77129,-0.334961,0.45459,-19.8633,-86.4349,75.3662,0.12207,-0.366211,4.21143,-0.640228,-0.313171,0.610413,-0.345398,-24891,-28648,-3353,-8936,-28669
58212,9.79043,-0.339746,0.468945,-20.2588,-86.424,75.7233,0.244141,0,4.69971,-0.640289,-0.312469,0.610809,-0.345215,-20539,-28392,-2073,-8936,-28669
58218,9.76172,-0.358887,0.45459,-20.9399,-86.4075,76.3275,0.549316,0.732422,4.21143,-0.64035,-0.312164,0.610962,-0.345123,-18747,-28648,-793,-8936,-28669
58224,9.80957,-0.397168,0.468945,-21.275,-86.3965,76.6296,0.793457,1.15967,4.5166,-0.640411,-0.311829,0.611115,-0.345062,-17723,-28904,1256,-8936,-28669
58230,9.81436,-0.459375,0.468945,-21.5552,-86.38,76.8713,0.671387,1.40381,3.84521,-0.640442,-0.311493,0.611267,-0.345001,-17467,-29928,3560,-8936,-28669
58236,9.8335,-0.425879,0.430664,-21.7529,-86.369,77.0251,0.427246,1.83105,2.86865,-0.640533,-0.311157,0.611389,-0.34494,-17723,-30184,5352,-8936,-28669
58242,9.8,-0.421094,0.440234,-21.8738,-86.3525,77.1075,0.427246,2.44141,2.0752,-0.640778,-0.310516,0.611603,-0.344696,-16443,-30696,7400,-8936,-28669
58248,9.8335,-0.416309,0.44502,-21.9122,-86.3251,77.0636,0.244141,3.11279,0.732422,-0.640961,-0.310211,0.611664,-0.344513,-15931,-29928,6376,-8936,-28669
58254,9.79521,-0.397168,0.516797,-21.8738,-86.3086,76.9757,0.366211,3.23486,0.12207,-0.641144,-0.309906,0.611725,-0.34436,-15163,-29416,5096,-8936,-28669
58260,9.8,-0.401953,0.531152,-21.8134,-86.2976,76.8768,0.244141,3.11279,-0.12207,-0.641357,-0.309601,0.611755,-0.344147,-14651,-29160,3560,-8936,-28669
58266,9.81914,-0.401953,0.526367,-21.7529,-86.2866,76.767,0.12207,2.74658,-0.366211,-0.641571,-0.309296,0.611816,-0.343964,-13627,-27624,1000,-8936,-28669
58272,9.80479,-0.368457,0.593359,-21.6925,-86.2756,76.6571,0.183105,2.0752,-0.671387,-0.641937,-0.308746,0.611938,-0.343475,-13371,-25576,-3097,-8936,-28669
58278,9.80479,-0.358887,0.607715,-21.6266,-86.2756,76.5033,0.0610352,0.427246,-0.671387,-0.64212,-0.308502,0.61203,-0.343231,-13627,-24808,-5145,-8936,-28669
58284,9.78564,-0.373242,0.535937,-21.6595,-86.2756,76.4923,0,-0.610352,-0.366211,-0.642242,-0.308289,0.612152,-0.342987,-14139,-24552,-6937,-8936,-28669
58290,9.78564,-0.368457,0.521582,-21.709,-86.2811,76.4978,0.0610352,-0.854492,-0.244141,-0.642365,-0.308044,0.612305,-0.342743,-14395,-24552,-7961,-8936,-28669
58296,9.76172,-0.354102,0.468945,-21.7859,-86.2866,76.5253,0,-0.793457,0.12207,-0.642456,-0.307831,0.612457,-0.342468,-14395,-24552,-9241,-8936,-28669
58302,9.77607,-0.382812,0.47373,-21.8408,-86.2866,76.5363,0.12207,-0.183105,0.183105,-0.64267,-0.307343,0.612762,-0.34198,-13627,-25576,-11289,-8936,-28669
58308,9.7665,-0.378027,0.492871,-21.9617,-86.2866,76.5747,0.244141,0,0.305176,-0.642761,-0.307098,0.612885,-0.341736,-13115,-25832,-13593,-8936,-28669
58314,9.79043,-0.363672,0.516797,-22.0221,-86.2866,76.5912,0.0610352,0,0.244141,-0.642883,-0.306854,0.613007,-0.341522,-12859,-26600,-14873,-8936,-28669
58320,9.75215,-0.387598,0.46416,-22.1045,-86.2866,76.6296,0.244141,-0.0610352,0.549316,-0.642975,-0.30661,0.613159,-0.341309,-12859,-27112,-15385,-8936,-28669
58326,9.7665,-0.382812,0.47373,-22.1704,-86.2866,76.6516,0.0610352,-0.0610352,0.305176,-0.643097,-0.306335,0.613281,-0.341095,-13371,-27624,-15897,-8936,-28669
58332,9.76172,-0.378027,0.492871,-22.2144,-86.2866,76.6516,0,0.610352,-0.183105,-0.643311,-0.305847,0.613556,-0.340607,-14395,-27624,-14361,-8936,-28669
58338,9.78564,-0.406738,0.488086,-22.2089,-86.2811,76.5582,0,1.0376,-0.366211,-0.643463,-0.305603,0.613678,-0.340363,-14651,-27368,-13849,-8936,-28669
58344,9.78564,-0.373242,0.492871,-22.2089,-86.2756,76.5088,0,1.15967,-0.183105,-0.643616,-0.305328,0.61377,-0.340149,-14651,-27624,-13337,-8936,-28669
58350,9.77607,-0.354102,0.507227,-22.2144,-86.2756,76.4703,0,1.0376,-0.12207,-0.643768,-0.305084,0.613892,-0.339905,-14907,-27880,-13081,-8936,-28669
58356,9.80479,-0.339746,0.507227,-22.2418,-86.2701,76.4594,0,0.854492,0.183105,-0.643921,-0.30481,0.613983,-0.339661,-15163,-27368,-13337,-8936,-28669
58362,9.77129,-0.334961,0.545508,-22.2803,-86.2701,76.4484,0.0610352,-0.183105,1.15967,-0.644165,-0.304291,0.614227,-0.339203,-15419,-27368,-14361,-8936,-28669
58368,9.78086,-0.339746,0.531152,-22.5879,-86.2701,76.6736,0,-0.854492,1.64795,-0.644257,-0.304047,0.614349,-0.33902,-15163,-26600,-14105,-8936,-28669
58374,9.76172,-0.325391,0.540723,-22.7802,-86.2701,76.8274,-0.0610352,-1.28174,1.64795,-0.644318,-0.303772,0.614532,-0.338837,-14907,-26600,-12825,-8936,-28669
58380,9.77607,-0.349316,0.502441,-23.0383,-86.2756,77.0471,-0.0610352,-1.58691,2.44141,-0.644379,-0.303528,0.614716,-0.338623,-15163,-26088,-11801,-8936,-28669
58386,9.78086,-0.363672,0.516797,-23.335,-86.2756,77.3053,-0.0610352,-1.77002,2.86865,-0.644409,-0.303253,0.614899,-0.33847,-14907,-25576,-11033,-8936,-28669
58392,9.79043,-0.397168,0.468945,-23.6481,-86.2756,77.58,0.183105,-1.40381,3.72314,-0.644409,-0.302704,0.615295,-0.338196,-16187,-24552,-10777,-8936,-28669
58398,9.79043,-0.406738,0.492871,-24.2688,-86.2756,78.1293,0.244141,-1.2207,2.99072,-0.644409,-0.302429,0.615509,-0.338074,-17467,-24296,-10777,-8936,-28669
58404,9.80479,-0.459375,0.507227,-24.527,-86.2811,78.3545,0.366211,-1.64795,2.44141,-0.64444,-0.302185,0.615662,-0.337952,-17979,-24040,-10265,-8936,-28669
58410,9.86221,-0.46416,0.47373,-24.6973,-86.2811,78.4863,0.0610352,-1.46484,1.28174,-0.64444,-0.301941,0.615845,-0.337799,-18491,-23784,-9497,-8936,-28669
58416,9.85264,-0.47373,0.46416,-24.8016,-86.2921,78.5522,-0.244141,-1.52588,0.183105,-0.644501,-0.301727,0.616028,-0.337616,-18235,-24040,-8985,-8936,-28669
58422,9.79043,-0.416309,0.449805,-24.8181,-86.2976,78.5248,-0.0610352,-0.183105,-1.34277,-0.644653,-0.3013,0.616333,-0.337128,-18235,-24552,-8473,-8936,-28669
58428,9.76172,-0.401953,0.416309,-24.6698,-86.3031,78.2996,0,0.610352,-1.70898,-0.644775,-0.301117,0.616425,-0.336884,-17723,-24808,-8473,-8936,-28669
